"subjectIndex","subjectSex","subjectBirth","subjectEdu","time_stamp","subjectStiGroup","block_id","block_type","trial_id","trial_type_num","label_en","shape_en","Vali","match","correctRp","response","rt","acc"
"v010001",1,"1995","硕士",1613891719686,2,0,"prac",1,1,"ordinary","circular","bad","mismatch","m","NA","null","0"
"v010001",1,"1995","硕士",1613891722206,2,0,"prac",2,1,"bad","square","good","mismatch","m","NA","null","0"
"v010001",1,"1995","硕士",1613891724715,2,0,"prac",3,1,"bad","circular","bad","match","n","n","757.499999999709","1"
"v010001",1,"1995","硕士",1613891726781,2,0,"prac",4,1,"good","square","good","match","n","n","1065.8999999996158","1"
"v010001",1,"1995","硕士",1613891729154,2,0,"prac",5,1,"good","square","good","match","n","n","649.6000000006752","1"
"v010001",1,"1995","硕士",1613891731111,2,0,"prac",6,1,"good","circular","bad","mismatch","m","m","920.0000000001164","1"
"v010001",1,"1995","硕士",1613891733344,2,0,"prac",7,1,"bad","circular","bad","match","n","n","896.7000000011176","1"
"v010001",1,"1995","硕士",1613891735553,2,0,"prac",8,1,"ordinary","square","good","mismatch","m","n","930.3999999992666","0"
"v010001",1,"1995","硕士",1613891737789,2,0,"prac",9,1,"good","triangle","ordinary","mismatch","m","m","1007.6000000008498","1"
"v010001",1,"1995","硕士",1613891740109,2,0,"prac",10,1,"ordinary","triangle","ordinary","match","n","m","880.3000000006869","0"
"v010001",1,"1995","硕士",1613891742301,2,0,"prac",11,1,"bad","triangle","ordinary","mismatch","m","m","1061.4999999997672","1"
"v010001",1,"1995","硕士",1613891744669,2,0,"prac",12,1,"ordinary","triangle","ordinary","match","n","NA","null","0"
"v010001",1,"1995","硕士",1613891784043,2,1,"prac",1,2,"ordinary","circular","bad","mismatch","m","n","704.4999999998836","0"
"v010001",1,"1995","硕士",1613891786055,2,1,"prac",2,2,"good","circular","bad","mismatch","m","m","923.1999999992549","1"
"v010001",1,"1995","硕士",1613891788285,2,1,"prac",3,2,"good","triangle","ordinary","mismatch","m","m","1012.6999999993131","1"
"v010001",1,"1995","硕士",1613891790607,2,1,"prac",4,2,"bad","square","good","mismatch","m","n","669.3000000013853","0"
"v010001",1,"1995","硕士",1613891792582,2,1,"prac",5,2,"good","square","good","match","n","n","824.6999999991967","1"
"v010001",1,"1995","硕士",1613891794716,2,1,"prac",6,2,"bad","circular","bad","match","n","n","677.2000000000698","1"
"v010001",1,"1995","硕士",1613891796705,2,1,"prac",7,2,"ordinary","triangle","ordinary","match","n","n","593.8999999998487","1"
"v010001",1,"1995","硕士",1613891798608,2,1,"prac",8,2,"ordinary","triangle","ordinary","match","n","n","717.6999999992549","1"
"v010001",1,"1995","硕士",1613891800634,2,1,"prac",9,2,"ordinary","square","good","mismatch","m","m","601.3000000002794","1"
"v010001",1,"1995","硕士",1613891802541,2,1,"prac",10,2,"bad","circular","bad","match","n","n","814.2999999999884","1"
"v010001",1,"1995","硕士",1613891804662,2,1,"prac",11,2,"bad","triangle","ordinary","mismatch","m","m","682.2000000011176","1"
"v010001",1,"1995","硕士",1613891806653,2,1,"prac",12,2,"good","square","good","match","n","n","661.4000000008382","1"
"v010001",1,"1995","硕士",1613891815812,2,1,"test",1,1,"good","circular","bad","mismatch","m","n","755.0000000009895","0"
"v010001",1,"1995","硕士",1613891817876,2,1,"test",2,1,"bad","circular","bad","match","n","n","797.0000000004657","1"
"v010001",1,"1995","硕士",1613891819981,2,1,"test",3,1,"bad","circular","bad","match","n","n","641.4000000004307","1"
"v010001",1,"1995","硕士",1613891821930,2,1,"test",4,1,"bad","square","good","mismatch","m","m","812.7999999996973","1"
"v010001",1,"1995","硕士",1613891824050,2,1,"test",5,1,"good","square","good","match","n","n","747.0000000012224","1"
"v010001",1,"1995","硕士",1613891826105,2,1,"test",6,1,"ordinary","triangle","ordinary","match","n","m","746.9000000001397","0"
"v010001",1,"1995","硕士",1613891828159,2,1,"test",7,1,"ordinary","triangle","ordinary","match","n","n","433.30000000062864","1"
"v010001",1,"1995","硕士",1613891829902,2,1,"test",8,1,"good","square","good","match","n","n","781.1999999994296","1"
"v010001",1,"1995","硕士",1613891831996,2,1,"test",9,1,"good","triangle","ordinary","mismatch","m","n","403.400000001071","0"
"v010001",1,"1995","硕士",1613891833706,2,1,"test",10,1,"bad","triangle","ordinary","mismatch","m","m","1017.2000000002445","1"
"v010001",1,"1995","硕士",1613891836028,2,1,"test",11,1,"ordinary","square","good","mismatch","m","n","770.700000000943","0"
"v010001",1,"1995","硕士",1613891838109,2,1,"test",12,1,"ordinary","circular","bad","mismatch","m","m","748.7000000000698","1"
"v010001",1,"1995","硕士",1613891840165,2,1,"test",1,2,"good","square","good","match","n","n","809.4999999994179","1"
"v010001",1,"1995","硕士",1613891842282,2,1,"test",2,2,"bad","triangle","ordinary","mismatch","m","n","793.4999999997672","0"
"v010001",1,"1995","硕士",1613891844383,2,1,"test",3,2,"bad","circular","bad","match","n","n","662.999999998603","1"
"v010001",1,"1995","硕士",1613891846353,2,1,"test",4,2,"good","square","good","match","n","n","829.2000000001281","1"
"v010001",1,"1995","硕士",1613891848488,2,1,"test",5,2,"good","triangle","ordinary","mismatch","m","m","744.8000000003958","1"
"v010001",1,"1995","硕士",1613891850539,2,1,"test",6,2,"bad","circular","bad","match","n","n","616.5000000001164","1"
"v010001",1,"1995","硕士",1613891852469,2,1,"test",7,2,"ordinary","triangle","ordinary","match","n","n","690.0999999998021","1"
"v010001",1,"1995","硕士",1613891854466,2,1,"test",8,2,"ordinary","triangle","ordinary","match","n","n","487.9000000000815","1"
"v010001",1,"1995","硕士",1613891856261,2,1,"test",9,2,"good","circular","bad","mismatch","m","n","718.3999999997905","0"
"v010001",1,"1995","硕士",1613891858286,2,1,"test",10,2,"ordinary","circular","bad","mismatch","m","m","795.2000000004773","1"
"v010001",1,"1995","硕士",1613891860388,2,1,"test",11,2,"ordinary","square","good","mismatch","m","n","698.6999999990221","0"
"v010001",1,"1995","硕士",1613891862398,2,1,"test",12,2,"bad","square","good","mismatch","m","m","694.500000001397","1"
"v010001",1,"1995","硕士",1613891864400,2,1,"test",1,3,"good","square","good","match","n","n","674.600000000326","1"
"v010001",1,"1995","硕士",1613891866382,2,1,"test",2,3,"bad","circular","bad","match","n","m","583.9999999989523","0"
"v010001",1,"1995","硕士",1613891868274,2,1,"test",3,3,"ordinary","square","good","mismatch","m","n","431.5000000005821","0"
"v010001",1,"1995","硕士",1613891870012,2,1,"test",4,3,"bad","triangle","ordinary","mismatch","m","m","711.3999999983353","1"
"v010001",1,"1995","硕士",1613891872030,2,1,"test",5,3,"ordinary","circular","bad","mismatch","m","n","584.2999999985914","0"
"v010001",1,"1995","硕士",1613891873927,2,1,"test",6,3,"good","square","good","match","n","m","627.0000000004075","0"
"v010001",1,"1995","硕士",1613891875859,2,1,"test",7,3,"good","triangle","ordinary","mismatch","m","m","863.1999999997788","1"
"v010001",1,"1995","硕士",1613891878027,2,1,"test",8,3,"ordinary","triangle","ordinary","match","n","n","827.9000000002561","1"
"v010001",1,"1995","硕士",1613891880162,2,1,"test",9,3,"bad","circular","bad","match","n","m","865.6000000009662","0"
"v010001",1,"1995","硕士",1613891882335,2,1,"test",10,3,"ordinary","triangle","ordinary","match","n","m","979.3000000009197","0"
"v010001",1,"1995","硕士",1613891884621,2,1,"test",11,3,"good","circular","bad","mismatch","m","m","831.8999999992084","1"
"v010001",1,"1995","硕士",1613891886760,2,1,"test",12,3,"bad","square","good","mismatch","m","n","1062.5","0"
"v010001",1,"1995","硕士",1613891889132,2,1,"test",1,4,"bad","circular","bad","match","n","n","1182.4999999990105","1"
"v010001",1,"1995","硕士",1613891891623,2,1,"test",2,4,"good","circular","bad","mismatch","m","m","751.8999999992666","1"
"v010001",1,"1995","硕士",1613891893685,2,1,"test",3,4,"good","square","good","match","n","n","1161.2999999997555","1"
"v010001",1,"1995","硕士",1613891896156,2,1,"test",4,4,"bad","square","good","mismatch","m","m","796.3999999992666","1"
"v010001",1,"1995","硕士",1613891898260,2,1,"test",5,4,"bad","triangle","ordinary","mismatch","m","n","744.0999999999185","0"
"v010001",1,"1995","硕士",1613891900314,2,1,"test",6,4,"good","triangle","ordinary","mismatch","m","m","871.4999999993015","1"
"v010001",1,"1995","硕士",1613891902495,2,1,"test",7,4,"ordinary","triangle","ordinary","match","n","n","782.9000000001397","1"
"v010001",1,"1995","硕士",1613891904585,2,1,"test",8,4,"ordinary","triangle","ordinary","match","n","n","529.6999999991385","1"
"v010001",1,"1995","硕士",1613891906422,2,1,"test",9,4,"ordinary","circular","bad","mismatch","m","m","605.4000000003725","1"
"v010001",1,"1995","硕士",1613891908336,2,1,"test",10,4,"bad","circular","bad","match","n","n","848.2000000003609","1"
"v010001",1,"1995","硕士",1613891910493,2,1,"test",11,4,"ordinary","square","good","mismatch","m","m","655.0000000006403","1"
"v010001",1,"1995","硕士",1613891912455,2,1,"test",12,4,"good","square","good","match","n","n","638.8000000006286","1"
"v010001",1,"1995","硕士",1613891914405,2,1,"test",1,5,"good","square","good","match","n","n","517.5","1"
"v010001",1,"1995","硕士",1613891916229,2,1,"test",2,5,"bad","circular","bad","match","n","m","678.2999999995809","0"
"v010001",1,"1995","硕士",1613891918215,2,1,"test",3,5,"good","triangle","ordinary","mismatch","m","n","792.6999999999534","0"
"v010001",1,"1995","硕士",1613891920316,2,1,"test",4,5,"ordinary","triangle","ordinary","match","n","n","749.2000000001863","1"
"v010001",1,"1995","硕士",1613891922372,2,1,"test",5,5,"good","circular","bad","mismatch","m","n","935.7000000000698","0"
"v010001",1,"1995","硕士",1613891924612,2,1,"test",6,5,"ordinary","square","good","mismatch","m","m","769.5999999996275","1"
"v010001",1,"1995","硕士",1613891926689,2,1,"test",7,5,"ordinary","circular","bad","mismatch","m","m","822.7999999999302","1"
"v010001",1,"1995","硕士",1613891928823,2,1,"test",8,5,"bad","circular","bad","match","n","n","981.2999999994645","1"
"v010001",1,"1995","硕士",1613891931113,2,1,"test",9,5,"bad","square","good","mismatch","m","m","616.0999999992782","1"
"v010001",1,"1995","硕士",1613891933035,2,1,"test",10,5,"good","square","good","match","n","n","823.800000000163","1"
"v010001",1,"1995","硕士",1613891935164,2,1,"test",11,5,"bad","triangle","ordinary","mismatch","m","n","611.9999999991851","0"
"v010001",1,"1995","硕士",1613891937082,2,1,"test",12,5,"ordinary","triangle","ordinary","match","n","m","518.2999999998137","0"
"v010001",1,"1995","硕士",1613891938908,2,1,"test",1,6,"bad","circular","bad","match","n","n","696.9000000008382","1"
"v010001",1,"1995","硕士",1613891940912,2,1,"test",2,6,"ordinary","triangle","ordinary","match","n","n","685.9000000003725","1"
"v010001",1,"1995","硕士",1613891942906,2,1,"test",3,6,"good","circular","bad","mismatch","m","n","653.7000000007683","0"
"v010001",1,"1995","硕士",1613891944868,2,1,"test",4,6,"good","square","good","match","n","n","573.2000000007683","1"
"v010001",1,"1995","硕士",1613891946749,2,1,"test",5,6,"bad","circular","bad","match","n","n","654.4999999988358","1"
"v010001",1,"1995","硕士",1613891948710,2,1,"test",6,6,"bad","triangle","ordinary","mismatch","m","m","809.7999999989988","1"
"v010001",1,"1995","硕士",1613891950829,2,1,"test",7,6,"bad","square","good","mismatch","m","n","695.3000000012107","0"
"v010001",1,"1995","硕士",1613891952832,2,1,"test",8,6,"ordinary","circular","bad","mismatch","m","n","652.0000000001164","0"
"v010001",1,"1995","硕士",1613891954792,2,1,"test",9,6,"ordinary","square","good","mismatch","m","n","755.5000000011642","0"
"v010001",1,"1995","硕士",1613891956865,2,1,"test",10,6,"good","triangle","ordinary","mismatch","m","m","769.8999999993248","1"
"v010001",1,"1995","硕士",1613891958942,2,1,"test",11,6,"ordinary","triangle","ordinary","match","n","n","682.7999999986496","1"
"v010001",1,"1995","硕士",1613891960934,2,1,"test",12,6,"good","square","good","match","n","n","685.8000000010943","1"
"v010001",1,"1995","硕士",1613891994679,2,2,"test",1,7,"good","square","good","match","n","n","786.7999999999302","1"
"v010001",1,"1995","硕士",1613891996772,2,2,"test",2,7,"ordinary","triangle","ordinary","match","n","n","689.2999999999302","1"
"v010001",1,"1995","硕士",1613891998767,2,2,"test",3,7,"bad","square","good","mismatch","m","m","732","1"
"v010001",1,"1995","硕士",1613892000806,2,2,"test",4,7,"good","square","good","match","n","n","595.4999999994179","1"
"v010001",1,"1995","硕士",1613892002711,2,2,"test",5,7,"good","triangle","ordinary","mismatch","m","m","745.8000000005122","1"
"v010001",1,"1995","硕士",1613892004766,2,2,"test",6,7,"ordinary","triangle","ordinary","match","n","n","798.8000000005122","1"
"v010001",1,"1995","硕士",1613892006870,2,2,"test",7,7,"good","circular","bad","mismatch","m","m","766.1000000006752","1"
"v010001",1,"1995","硕士",1613892008946,2,2,"test",8,7,"bad","circular","bad","match","n","m","696.7000000004191","0"
"v010001",1,"1995","硕士",1613892010949,2,2,"test",9,7,"ordinary","square","good","mismatch","m","m","916.9999999995343","1"
"v010001",1,"1995","硕士",1613892013181,2,2,"test",10,7,"bad","circular","bad","match","n","m","656.6999999994878","0"
"v010001",1,"1995","硕士",1613892015148,2,2,"test",11,7,"ordinary","circular","bad","mismatch","m","m","1041.1000000004424","1"
"v010001",1,"1995","硕士",1613892017497,2,2,"test",12,7,"bad","triangle","ordinary","mismatch","m","m","1108.700000000652","1"
"v010001",1,"1995","硕士",1613892019912,2,2,"test",1,8,"bad","circular","bad","match","n","n","809.9000000001397","1"
"v010001",1,"1995","硕士",1613892022033,2,2,"test",2,8,"bad","triangle","ordinary","mismatch","m","m","817.200000001234","1"
"v010001",1,"1995","硕士",1613892024162,2,2,"test",3,8,"ordinary","circular","bad","mismatch","m","n","807.0999999999767","0"
"v010001",1,"1995","硕士",1613892026276,2,2,"test",4,8,"ordinary","square","good","mismatch","m","n","557.3999999997905","0"
"v010001",1,"1995","硕士",1613892028138,2,2,"test",5,8,"good","square","good","match","n","n","584.6000000000931","1"
"v010001",1,"1995","硕士",1613892030032,2,2,"test",6,8,"good","triangle","ordinary","mismatch","m","m","750.4000000008382","1"
"v010001",1,"1995","硕士",1613892032088,2,2,"test",7,8,"ordinary","triangle","ordinary","match","n","n","930.9999999987194","1"
"v010001",1,"1995","硕士",1613892034326,2,2,"test",8,8,"bad","circular","bad","match","n","n","802.9000000006054","1"
"v010001",1,"1995","硕士",1613892036439,2,2,"test",9,8,"bad","square","good","mismatch","m","m","779.4999999987194","1"
"v010001",1,"1995","硕士",1613892038530,2,2,"test",10,8,"ordinary","triangle","ordinary","match","n","n","622.199999999837","1"
"v010001",1,"1995","硕士",1613892040459,2,2,"test",11,8,"good","square","good","match","n","n","998.1000000006752","1"
"v010001",1,"1995","硕士",1613892042765,2,2,"test",12,8,"good","circular","bad","mismatch","m","n","754.3999999999069","0"
"v010001",1,"1995","硕士",1613892044825,2,2,"test",1,9,"ordinary","triangle","ordinary","match","n","m","736.3999999997905","0"
"v010001",1,"1995","硕士",1613892046867,2,2,"test",2,9,"bad","circular","bad","match","n","n","786.7999999999302","1"
"v010001",1,"1995","硕士",1613892048966,2,2,"test",3,9,"bad","circular","bad","match","n","n","778.3000000000466","1"
"v010001",1,"1995","硕士",1613892051052,2,2,"test",4,9,"good","square","good","match","n","n","808.1000000002095","1"
"v010001",1,"1995","硕士",1613892053167,2,2,"test",5,9,"good","triangle","ordinary","mismatch","m","m","845.2000000015832","1"
"v010001",1,"1995","硕士",1613892055320,2,2,"test",6,9,"bad","triangle","ordinary","mismatch","m","m","947.0000000001164","1"
"v010001",1,"1995","硕士",1613892057575,2,2,"test",7,9,"ordinary","triangle","ordinary","match","n","n","733.6999999989057","1"
"v010001",1,"1995","硕士",1613892059617,2,2,"test",8,9,"good","circular","bad","mismatch","m","m","855.1999999999534","1"
"v010001",1,"1995","硕士",1613892061780,2,2,"test",9,9,"ordinary","square","good","mismatch","m","n","824.8000000002794","0"
"v010001",1,"1995","硕士",1613892063910,2,2,"test",10,9,"bad","square","good","mismatch","m","m","831.0000000001164","1"
"v010001",1,"1995","硕士",1613892066050,2,2,"test",11,9,"ordinary","circular","bad","mismatch","m","n","671.2000000007683","0"
"v010001",1,"1995","硕士",1613892068027,2,2,"test",12,9,"good","square","good","match","n","n","695.2000000000698","1"
"v010001",1,"1995","硕士",1613892070033,2,2,"test",1,10,"bad","circular","bad","match","n","n","655.9000000015367","1"
"v010001",1,"1995","硕士",1613892072001,2,2,"test",2,10,"bad","triangle","ordinary","mismatch","m","n","590.8999999992084","0"
"v010001",1,"1995","硕士",1613892073901,2,2,"test",3,10,"bad","square","good","mismatch","m","m","845.699999999837","1"
"v010001",1,"1995","硕士",1613892076056,2,2,"test",4,10,"ordinary","triangle","ordinary","match","n","n","769.2000000006519","1"
"v010001",1,"1995","硕士",1613892078134,2,2,"test",5,10,"ordinary","circular","bad","mismatch","m","n","750.0999999992782","0"
"v010001",1,"1995","硕士",1613892080194,2,2,"test",6,10,"bad","circular","bad","match","n","n","862.7000000015832","1"
"v010001",1,"1995","硕士",1613892082363,2,2,"test",7,10,"ordinary","square","good","mismatch","m","m","691.5000000008149","1"
"v010001",1,"1995","硕士",1613892084366,2,2,"test",8,10,"good","circular","bad","mismatch","m","m","937.9999999982538","1"
"v010001",1,"1995","硕士",1613892086612,2,2,"test",9,10,"ordinary","triangle","ordinary","match","n","n","1093.6999999993714","1"
"v010001",1,"1995","硕士",1613892089015,2,2,"test",10,10,"good","square","good","match","n","n","706.7999999999302","1"
"v010001",1,"1995","硕士",1613892091029,2,2,"test",11,10,"good","triangle","ordinary","mismatch","m","NA","null","0"
"v010001",1,"1995","硕士",1613892093541,2,2,"test",12,10,"good","square","good","match","n","n","764.4999999993015","1"
"v010001",1,"1995","硕士",1613892095612,2,2,"test",1,11,"bad","circular","bad","match","n","m","1109.499999998603","0"
"v010001",1,"1995","硕士",1613892098026,2,2,"test",2,11,"ordinary","circular","bad","mismatch","m","m","1067.0000000009313","1"
"v010001",1,"1995","硕士",1613892100408,2,2,"test",3,11,"good","circular","bad","mismatch","m","m","891.2999999993481","1"
"v010001",1,"1995","硕士",1613892102606,2,2,"test",4,11,"ordinary","square","good","mismatch","m","m","991.3999999989755","1"
"v010001",1,"1995","硕士",1613892104903,2,2,"test",5,11,"good","square","good","match","n","n","519.6999999989057","1"
"v010001",1,"1995","硕士",1613892106732,2,2,"test",6,11,"bad","triangle","ordinary","mismatch","m","m","723.7999999996973","1"
"v010001",1,"1995","硕士",1613892108768,2,2,"test",7,11,"ordinary","triangle","ordinary","match","n","n","746.3000000006286","1"
"v010001",1,"1995","硕士",1613892110822,2,2,"test",8,11,"good","square","good","match","n","n","969.299999998766","1"
"v010001",1,"1995","硕士",1613892113102,2,2,"test",9,11,"ordinary","triangle","ordinary","match","n","m","777.0999999993946","0"
"v010001",1,"1995","硕士",1613892115190,2,2,"test",10,11,"good","triangle","ordinary","mismatch","m","m","1140.9000000002561","1"
"v010001",1,"1995","硕士",1613892117640,2,2,"test",11,11,"bad","circular","bad","match","n","m","978.4000000000233","0"
"v010001",1,"1995","硕士",1613892119926,2,2,"test",12,11,"bad","square","good","mismatch","m","m","890.4000000001397","1"
"v010001",1,"1995","硕士",1613892122123,2,2,"test",1,12,"good","square","good","match","n","m","902.0999999992782","0"
"v010001",1,"1995","硕士",1613892124331,2,2,"test",2,12,"bad","square","good","mismatch","m","n","807.0000000006985","0"
"v010001",1,"1995","硕士",1613892126445,2,2,"test",3,12,"bad","circular","bad","match","n","n","871.1999999996042","1"
"v010001",1,"1995","硕士",1613892128624,2,2,"test",4,12,"good","circular","bad","mismatch","m","m","860.9000000014203","1"
"v010001",1,"1995","硕士",1613892130790,2,2,"test",5,12,"good","square","good","match","n","n","729.6000000005588","1"
"v010001",1,"1995","硕士",1613892132826,2,2,"test",6,12,"ordinary","circular","bad","mismatch","m","m","1100.5999999997439","1"
"v010001",1,"1995","硕士",1613892135237,2,2,"test",7,12,"good","triangle","ordinary","mismatch","m","m","846.3000000010943","1"
"v010001",1,"1995","硕士",1613892137391,2,2,"test",8,12,"bad","circular","bad","match","n","m","833.5999999999767","0"
"v010001",1,"1995","硕士",1613892139536,2,2,"test",9,12,"ordinary","triangle","ordinary","match","n","n","911.5999999993946","1"
"v010001",1,"1995","硕士",1613892141754,2,2,"test",10,12,"ordinary","square","good","mismatch","m","m","749.7999999995809","1"
"v010001",1,"1995","硕士",1613892143813,2,2,"test",11,12,"ordinary","triangle","ordinary","match","n","n","794.5","1"
"v010001",1,"1995","硕士",1613892145920,2,2,"test",12,12,"bad","triangle","ordinary","mismatch","m","m","694.9999999997672","1"
"v010001",1,"1995","硕士",1613892166543,2,3,"test",1,13,"good","circular","bad","mismatch","m","m","988.7999999992317","1"
"v010001",1,"1995","硕士",1613892168842,2,3,"test",2,13,"ordinary","triangle","ordinary","match","n","n","796.9999999987194","1"
"v010001",1,"1995","硕士",1613892170949,2,3,"test",3,13,"good","triangle","ordinary","mismatch","m","m","728.0000000009313","1"
"v010001",1,"1995","硕士",1613892172987,2,3,"test",4,13,"bad","triangle","ordinary","mismatch","m","m","834.8000000005122","1"
"v010001",1,"1995","硕士",1613892175131,2,3,"test",5,13,"good","square","good","match","n","n","819.1999999999534","1"
"v010001",1,"1995","硕士",1613892177256,2,3,"test",6,13,"ordinary","square","good","mismatch","m","m","747.4000000002561","1"
"v010001",1,"1995","硕士",1613892179309,2,3,"test",7,13,"ordinary","circular","bad","mismatch","m","m","783.9000000003725","1"
"v010001",1,"1995","硕士",1613892181403,2,3,"test",8,13,"bad","circular","bad","match","n","n","720.4000000001397","1"
"v010001",1,"1995","硕士",1613892183433,2,3,"test",9,13,"bad","square","good","mismatch","m","m","680.5000000004657","1"
"v010001",1,"1995","硕士",1613892185419,2,3,"test",10,13,"ordinary","triangle","ordinary","match","n","m","843.6999999994878","0"
"v010001",1,"1995","硕士",1613892187569,2,3,"test",11,13,"bad","circular","bad","match","n","n","987.100000000326","1"
"v010001",1,"1995","硕士",1613892189861,2,3,"test",12,13,"good","square","good","match","n","n","631.199999999837","1"
"v010001",1,"1995","硕士",1613892191800,2,3,"test",1,14,"ordinary","triangle","ordinary","match","n","n","836.9000000002561","1"
"v010001",1,"1995","硕士",1613892193948,2,3,"test",2,14,"bad","circular","bad","match","n","n","857.6999999986729","1"
"v010001",1,"1995","硕士",1613892196112,2,3,"test",3,14,"good","square","good","match","n","n","655.7999999986496","1"
"v010001",1,"1995","硕士",1613892198077,2,3,"test",4,14,"bad","triangle","ordinary","mismatch","m","m","750.3000000014435","1"
"v010001",1,"1995","硕士",1613892200137,2,3,"test",5,14,"bad","circular","bad","match","n","m","769.1999999987893","0"
"v010001",1,"1995","硕士",1613892202213,2,3,"test",6,14,"good","triangle","ordinary","mismatch","m","m","741.7000000005355","1"
"v010001",1,"1995","硕士",1613892204261,2,3,"test",7,14,"ordinary","triangle","ordinary","match","n","n","765.9000000003725","1"
"v010001",1,"1995","硕士",1613892206333,2,3,"test",8,14,"good","circular","bad","mismatch","m","m","1090.700000000652","1"
"v010001",1,"1995","硕士",1613892208734,2,3,"test",9,14,"ordinary","circular","bad","mismatch","m","m","1096.9999999997672","1"
"v010001",1,"1995","硕士",1613892211138,2,3,"test",10,14,"ordinary","square","good","mismatch","m","NA","null","0"
"v010001",1,"1995","硕士",1613892213650,2,3,"test",11,14,"good","square","good","match","n","n","838.3000000013271","1"
"v010001",1,"1995","硕士",1613892215797,2,3,"test",12,14,"bad","square","good","mismatch","m","m","934.1999999997206","1"
"v010001",1,"1995","硕士",1613892218041,2,3,"test",1,15,"good","triangle","ordinary","mismatch","m","m","864.3000000010943","1"
"v010001",1,"1995","硕士",1613892220217,2,3,"test",2,15,"bad","circular","bad","match","n","n","760.1999999987893","1"
"v010001",1,"1995","硕士",1613892222286,2,3,"test",3,15,"bad","square","good","mismatch","m","m","898.6000000004424","1"
"v010001",1,"1995","硕士",1613892224492,2,3,"test",4,15,"bad","circular","bad","match","n","n","765.9999999995343","1"
"v010001",1,"1995","硕士",1613892226566,2,3,"test",5,15,"bad","triangle","ordinary","mismatch","m","m","699.3000000002794","1"
"v010001",1,"1995","硕士",1613892228569,2,3,"test",6,15,"ordinary","circular","bad","mismatch","m","m","879.200000001234","1"
"v010001",1,"1995","硕士",1613892230761,2,3,"test",7,15,"ordinary","triangle","ordinary","match","n","n","703.7000000000698","1"
"v010001",1,"1995","硕士",1613892232782,2,3,"test",8,15,"ordinary","triangle","ordinary","match","n","m","653.5000000003492","0"
"v010001",1,"1995","硕士",1613892234751,2,3,"test",9,15,"good","square","good","match","n","n","586.9000000002561","1"
"v010001",1,"1995","硕士",1613892236647,2,3,"test",10,15,"good","square","good","match","n","n","647.7000000013504","1"
"v010001",1,"1995","硕士",1613892238605,2,3,"test",11,15,"ordinary","square","good","mismatch","m","m","969.4999999991851","1"
"v010001",1,"1995","硕士",1613892240881,2,3,"test",12,15,"good","circular","bad","mismatch","m","n","604.1000000004424","0"
"v010001",1,"1995","硕士",1613892242794,2,3,"test",1,16,"good","triangle","ordinary","mismatch","m","m","897.3999999999069","1"
"v010001",1,"1995","硕士",1613892245000,2,3,"test",2,16,"ordinary","triangle","ordinary","match","n","n","1138.8000000006286","1"
"v010001",1,"1995","硕士",1613892247448,2,3,"test",3,16,"bad","circular","bad","match","n","n","766.2000000000698","1"
"v010001",1,"1995","硕士",1613892249522,2,3,"test",4,16,"ordinary","circular","bad","mismatch","m","m","758.4000000006054","1"
"v010001",1,"1995","硕士",1613892251588,2,3,"test",5,16,"good","square","good","match","n","n","616.7999999998137","1"
"v010001",1,"1995","硕士",1613892253514,2,3,"test",6,16,"bad","square","good","mismatch","m","m","668.5999999990454","1"
"v010001",1,"1995","硕士",1613892255487,2,3,"test",7,16,"bad","triangle","ordinary","mismatch","m","m","887.4999999989523","1"
"v010001",1,"1995","硕士",1613892257683,2,3,"test",8,16,"bad","circular","bad","match","n","n","673.399999999674","1"
"v010001",1,"1995","硕士",1613892259664,2,3,"test",9,16,"good","square","good","match","n","n","1026.3999999988591","1"
"v010001",1,"1995","硕士",1613892261998,2,3,"test",10,16,"ordinary","triangle","ordinary","match","n","m","660.7999999995809","0"
"v010001",1,"1995","硕士",1613892263965,2,3,"test",11,16,"good","circular","bad","mismatch","m","m","817.6000000002095","1"
"v010001",1,"1995","硕士",1613892266092,2,3,"test",12,16,"ordinary","square","good","mismatch","m","m","1076.299999998766","1"
"v010001",1,"1995","硕士",1613892268473,2,3,"test",1,17,"good","square","good","match","n","n","962.4999999996508","1"
"v010001",1,"1995","硕士",1613892270744,2,3,"test",2,17,"good","circular","bad","mismatch","m","m","718.9999999991851","1"
"v010001",1,"1995","硕士",1613892272772,2,3,"test",3,17,"ordinary","circular","bad","mismatch","m","m","747.5000000012806","1"
"v010001",1,"1995","硕士",1613892274829,2,3,"test",4,17,"bad","circular","bad","match","n","n","1045.6999999986729","1"
"v010001",1,"1995","硕士",1613892277183,2,3,"test",5,17,"ordinary","square","good","mismatch","m","m","762.8000000005122","1"
"v010001",1,"1995","硕士",1613892279256,2,3,"test",6,17,"bad","triangle","ordinary","mismatch","m","m","1075.1000000000931","1"
"v010001",1,"1995","硕士",1613892281640,2,3,"test",7,17,"good","triangle","ordinary","mismatch","m","m","927.4999999997672","1"
"v010001",1,"1995","硕士",1613892283873,2,3,"test",8,17,"good","square","good","match","n","n","560.2999999992317","1"
"v010001",1,"1995","硕士",1613892285737,2,3,"test",9,17,"ordinary","triangle","ordinary","match","n","n","789.0000000006985","1"
"v010001",1,"1995","硕士",1613892287832,2,3,"test",10,17,"ordinary","triangle","ordinary","match","n","n","503.49999999895226","1"
"v010001",1,"1995","硕士",1613892289643,2,3,"test",11,17,"bad","circular","bad","match","n","m","877.5000000004657","0"
"v010001",1,"1995","硕士",1613892291827,2,3,"test",12,17,"bad","square","good","mismatch","m","n","634.0999999992782","0"
"v010001",1,"1995","硕士",1613892293770,2,3,"test",1,18,"ordinary","triangle","ordinary","match","n","n","736.9000000017695","1"
"v010001",1,"1995","硕士",1613892295816,2,3,"test",2,18,"bad","square","good","mismatch","m","m","1155.9999999990687","1"
"v010001",1,"1995","硕士",1613892298279,2,3,"test",3,18,"bad","circular","bad","match","n","m","743.9000000013039","0"
"v010001",1,"1995","硕士",1613892300330,2,3,"test",4,18,"good","square","good","match","n","n","796.8999999993248","1"
"v010001",1,"1995","硕士",1613892302433,2,3,"test",5,18,"good","triangle","ordinary","mismatch","m","m","642.100000000908","1"
"v010001",1,"1995","硕士",1613892304385,2,3,"test",6,18,"bad","circular","bad","match","n","n","596.9999999996508","1"
"v010001",1,"1995","硕士",1613892306291,2,3,"test",7,18,"ordinary","triangle","ordinary","match","n","n","1038.500000000582","1"
"v010001",1,"1995","硕士",1613892308639,2,3,"test",8,18,"ordinary","circular","bad","mismatch","m","m","777.30000000156","1"
"v010001",1,"1995","硕士",1613892310725,2,3,"test",9,18,"good","square","good","match","n","n","947.2000000005355","1"
"v010001",1,"1995","硕士",1613892312979,2,3,"test",10,18,"good","circular","bad","mismatch","m","m","969.1999999994878","1"
"v010001",1,"1995","硕士",1613892315260,2,3,"test",11,18,"ordinary","square","good","mismatch","m","m","864.4999999996508","1"
"v010001",1,"1995","硕士",1613892317430,2,3,"test",12,18,"bad","triangle","ordinary","mismatch","m","n","924.7999999988824","0"
"v010001",1,"1995","硕士",1613892351021,2,4,"test",1,19,"good","square","good","match","n","NA","null","0"
"v010001",1,"1995","硕士",1613892353532,2,4,"test",2,19,"bad","square","good","mismatch","m","m","721.000000001397","1"
"v010001",1,"1995","硕士",1613892355559,2,4,"test",3,19,"bad","circular","bad","match","n","m","887.0000000005821","0"
"v010001",1,"1995","硕士",1613892357753,2,4,"test",4,19,"bad","triangle","ordinary","mismatch","m","m","1085.800000000745","1"
"v010001",1,"1995","硕士",1613892360144,2,4,"test",5,19,"ordinary","square","good","mismatch","m","m","1020.4000000013039","1"
"v010001",1,"1995","硕士",1613892362471,2,4,"test",6,19,"ordinary","triangle","ordinary","match","n","n","676.6000000006752","1"
"v010001",1,"1995","硕士",1613892364455,2,4,"test",7,19,"good","square","good","match","n","n","791.8000000008615","1"
"v010001",1,"1995","硕士",1613892366562,2,4,"test",8,19,"good","circular","bad","mismatch","m","m","823.6999999989057","1"
"v010001",1,"1995","硕士",1613892368691,2,4,"test",9,19,"bad","circular","bad","match","n","n","680.1999999987893","1"
"v010001",1,"1995","硕士",1613892370682,2,4,"test",10,19,"ordinary","triangle","ordinary","match","n","n","693.2999999989988","1"
"v010001",1,"1995","硕士",1613892372685,2,4,"test",11,19,"good","triangle","ordinary","mismatch","m","m","788.5000000005821","1"
"v010001",1,"1995","硕士",1613892374780,2,4,"test",12,19,"ordinary","circular","bad","mismatch","m","m","1133.7000000003027","1"
"v010001",1,"1995","硕士",1613892377222,2,4,"test",1,20,"ordinary","triangle","ordinary","match","n","n","638.8999999999069","1"
"v010001",1,"1995","硕士",1613892379168,2,4,"test",2,20,"good","square","good","match","n","n","605.900000000489","1"
"v010001",1,"1995","硕士",1613892381081,2,4,"test",3,20,"bad","circular","bad","match","n","n","847.2000000001863","1"
"v010001",1,"1995","硕士",1613892383244,2,4,"test",4,20,"bad","triangle","ordinary","mismatch","m","m","774.5000000012806","1"
"v010001",1,"1995","硕士",1613892385326,2,4,"test",5,20,"bad","circular","bad","match","n","n","803.5","1"
"v010001",1,"1995","硕士",1613892387441,2,4,"test",6,20,"good","square","good","match","n","n","746.9000000000233","1"
"v010001",1,"1995","硕士",1613892389497,2,4,"test",7,20,"ordinary","triangle","ordinary","match","n","n","699.3999999994412","1"
"v010001",1,"1995","硕士",1613892391505,2,4,"test",8,20,"ordinary","square","good","mismatch","m","m","967.3000000002794","1"
"v010001",1,"1995","硕士",1613892393781,2,4,"test",9,20,"ordinary","circular","bad","mismatch","m","m","854.7999999991152","1"
"v010001",1,"1995","硕士",1613892395942,2,4,"test",10,20,"good","circular","bad","mismatch","m","n","747.3000000008615","0"
"v010001",1,"1995","硕士",1613892398001,2,4,"test",11,20,"good","triangle","ordinary","mismatch","m","m","781.3999999999069","1"
"v010001",1,"1995","硕士",1613892400091,2,4,"test",12,20,"bad","square","good","mismatch","m","m","780.7999999986496","1"
"v010001",1,"1995","硕士",1613892402183,2,4,"test",1,21,"ordinary","circular","bad","mismatch","m","NA","null","0"
"v010001",1,"1995","硕士",1613892404697,2,4,"test",2,21,"ordinary","square","good","mismatch","m","m","921.5000000003492","1"
"v010001",1,"1995","硕士",1613892406928,2,4,"test",3,21,"bad","circular","bad","match","n","m","736.8000000006286","0"
"v010001",1,"1995","硕士",1613892408970,2,4,"test",4,21,"bad","triangle","ordinary","mismatch","m","n","971.900000000489","0"
"v010001",1,"1995","硕士",1613892411248,2,4,"test",5,21,"good","square","good","match","n","n","1031.5000000009313","1"
"v010001",1,"1995","硕士",1613892413587,2,4,"test",6,21,"bad","square","good","mismatch","m","m","728.9000000000233","1"
"v010001",1,"1995","硕士",1613892415628,2,4,"test",7,21,"good","circular","bad","mismatch","m","NA","null","0"
"v010001",1,"1995","硕士",1613892418133,2,4,"test",8,21,"good","square","good","match","n","n","740.9000000006054","1"
"v010001",1,"1995","硕士",1613892420183,2,4,"test",9,21,"ordinary","triangle","ordinary","match","n","n","892.9000000007218","1"
"v010001",1,"1995","硕士",1613892422385,2,4,"test",10,21,"good","triangle","ordinary","mismatch","m","m","777.7999999998137","1"
"v010001",1,"1995","硕士",1613892424471,2,4,"test",11,21,"ordinary","triangle","ordinary","match","n","n","872.7999999991152","1"
"v010001",1,"1995","硕士",1613892426650,2,4,"test",12,21,"bad","circular","bad","match","n","n","852.4999999990687","1"
"v010001",1,"1995","硕士",1613892428810,2,4,"test",1,22,"ordinary","triangle","ordinary","match","n","n","819.7999999992317","1"
"v010001",1,"1995","硕士",1613892430943,2,4,"test",2,22,"ordinary","square","good","mismatch","m","m","926.1000000005588","1"
"v010001",1,"1995","硕士",1613892433174,2,4,"test",3,22,"bad","circular","bad","match","n","m","892.9000000007218","0"
"v010001",1,"1995","硕士",1613892435375,2,4,"test",4,22,"good","circular","bad","mismatch","m","m","831.1999999987893","1"
"v010001",1,"1995","硕士",1613892437515,2,4,"test",5,22,"ordinary","circular","bad","mismatch","m","m","740.6000000010245","1"
"v010001",1,"1995","硕士",1613892439563,2,4,"test",6,22,"bad","triangle","ordinary","mismatch","m","n","870.8000000005122","0"
"v010001",1,"1995","硕士",1613892441741,2,4,"test",7,22,"good","triangle","ordinary","mismatch","m","m","782.5999999986961","1"
"v010001",1,"1995","硕士",1613892443831,2,4,"test",8,22,"good","square","good","match","n","n","697.7000000006519","1"
"v010001",1,"1995","硕士",1613892445835,2,4,"test",9,22,"ordinary","triangle","ordinary","match","n","m","887.2000000011176","0"
"v010001",1,"1995","硕士",1613892448030,2,4,"test",10,22,"bad","square","good","mismatch","m","m","1168.3000000012107","1"
"v010001",1,"1995","硕士",1613892450509,2,4,"test",11,22,"bad","circular","bad","match","n","n","817.8999999999069","1"
"v010001",1,"1995","硕士",1613892452635,2,4,"test",12,22,"good","square","good","match","n","m","1009.5","0"
"v010001",1,"1995","硕士",1613892454953,2,4,"test",1,23,"ordinary","triangle","ordinary","match","n","n","900.4000000006054","1"
"v010001",1,"1995","硕士",1613892457160,2,4,"test",2,23,"good","square","good","match","n","n","603.6999999994878","1"
"v010001",1,"1995","硕士",1613892459070,2,4,"test",3,23,"good","triangle","ordinary","mismatch","m","m","710.6999999997206","1"
"v010001",1,"1995","硕士",1613892461087,2,4,"test",4,23,"bad","circular","bad","match","n","n","604.7999999991152","1"
"v010001",1,"1995","硕士",1613892462998,2,4,"test",5,23,"good","square","good","match","n","n","669.1999999985565","1"
"v010001",1,"1995","硕士",1613892464976,2,4,"test",6,23,"bad","circular","bad","match","n","n","797.1999999990221","1"
"v010001",1,"1995","硕士",1613892467085,2,4,"test",7,23,"ordinary","triangle","ordinary","match","n","n","590.5000000002328","1"
"v010001",1,"1995","硕士",1613892468987,2,4,"test",8,23,"bad","triangle","ordinary","mismatch","m","m","655.2000000011176","1"
"v010001",1,"1995","硕士",1613892470952,2,4,"test",9,23,"good","circular","bad","mismatch","m","m","768.900000001071","1"
"v010001",1,"1995","硕士",1613892473032,2,4,"test",10,23,"ordinary","circular","bad","mismatch","m","m","905.8000000005122","1"
"v010001",1,"1995","硕士",1613892475248,2,4,"test",11,23,"ordinary","square","good","mismatch","m","m","818.9999999995343","1"
"v010001",1,"1995","硕士",1613892477372,2,4,"test",12,23,"bad","square","good","mismatch","m","m","929.6999999987893","1"
"v010001",1,"1995","硕士",1613892479610,2,4,"test",1,24,"good","circular","bad","mismatch","m","m","762.7999999986496","1"
"v010001",1,"1995","硕士",1613892481681,2,4,"test",2,24,"bad","circular","bad","match","n","m","857.4000000008382","0"
"v010001",1,"1995","硕士",1613892483847,2,4,"test",3,24,"ordinary","circular","bad","mismatch","m","m","1068.4000000001397","1"
"v010001",1,"1995","硕士",1613892486223,2,4,"test",4,24,"bad","triangle","ordinary","mismatch","m","m","723.3999999989755","1"
"v010001",1,"1995","硕士",1613892488263,2,4,"test",5,24,"bad","circular","bad","match","n","n","757.4000000003725","1"
"v010001",1,"1995","硕士",1613892490328,2,4,"test",6,24,"ordinary","triangle","ordinary","match","n","n","632.7999999993481","1"
"v010001",1,"1995","硕士",1613892492268,2,4,"test",7,24,"good","square","good","match","n","n","545.5000000002328","1"
"v010001",1,"1995","硕士",1613892494123,2,4,"test",8,24,"good","triangle","ordinary","mismatch","m","n","573.2000000008848","0"
"v010001",1,"1995","硕士",1613892496002,2,4,"test",9,24,"bad","square","good","mismatch","m","m","851.5999999998603","1"
"v010001",1,"1995","硕士",1613892498160,2,4,"test",10,24,"good","square","good","match","n","m","832.0000000002328","0"
"v010001",1,"1995","硕士",1613892500302,2,4,"test",11,24,"ordinary","square","good","mismatch","m","m","959.1000000000931","1"
"v010001",1,"1995","硕士",1613892502571,2,4,"test",12,24,"ordinary","triangle","ordinary","match","n","m","903.2000000006519","0"
"v010001",1,"1995","硕士",1613892550152,2,5,"test",1,25,"good","circular","bad","mismatch","m","m","721.9000000003725","1"
"v010001",1,"1995","硕士",1613892552183,2,5,"test",2,25,"good","square","good","match","n","n","630.0000000011642","1"
"v010001",1,"1995","硕士",1613892554122,2,5,"test",3,25,"bad","circular","bad","match","n","n","803.1000000010245","1"
"v010001",1,"1995","硕士",1613892556234,2,5,"test",4,25,"bad","square","good","mismatch","m","m","708.6000000000931","1"
"v010001",1,"1995","硕士",1613892558250,2,5,"test",5,25,"ordinary","triangle","ordinary","match","n","n","674.3999999999069","1"
"v010001",1,"1995","硕士",1613892560232,2,5,"test",6,25,"ordinary","circular","bad","mismatch","m","m","606.9000000006054","1"
"v010001",1,"1995","硕士",1613892562146,2,5,"test",7,25,"bad","circular","bad","match","n","n","697.900000001071","1"
"v010001",1,"1995","硕士",1613892564150,2,5,"test",8,25,"good","triangle","ordinary","mismatch","m","m","673.2000000008848","1"
"v010001",1,"1995","硕士",1613892566131,2,5,"test",9,25,"bad","triangle","ordinary","mismatch","m","m","822.8000000016764","1"
"v010001",1,"1995","硕士",1613892568261,2,5,"test",10,25,"good","square","good","match","n","n","612.3000000007451","1"
"v010001",1,"1995","硕士",1613892570183,2,5,"test",11,25,"ordinary","triangle","ordinary","match","n","n","854.9000000001397","1"
"v010001",1,"1995","硕士",1613892572344,2,5,"test",12,25,"ordinary","square","good","mismatch","m","m","694.500000001397","1"
"v010001",1,"1995","硕士",1613892574346,2,5,"test",1,26,"bad","triangle","ordinary","mismatch","m","m","1043.1999999999534","1"
"v010001",1,"1995","硕士",1613892576700,2,5,"test",2,26,"good","square","good","match","n","n","549.8999999999069","1"
"v010001",1,"1995","硕士",1613892578556,2,5,"test",3,26,"good","triangle","ordinary","mismatch","m","m","696.0999999993946","1"
"v010001",1,"1995","硕士",1613892580558,2,5,"test",4,26,"bad","circular","bad","match","n","n","625.9000000008382","1"
"v010001",1,"1995","硕士",1613892582490,2,5,"test",5,26,"bad","circular","bad","match","n","n","1040.3999999999069","1"
"v010001",1,"1995","硕士",1613892584838,2,5,"test",6,26,"good","circular","bad","mismatch","m","m","643.3999999992084","1"
"v010001",1,"1995","硕士",1613892586790,2,5,"test",7,26,"ordinary","square","good","mismatch","m","m","813","1"
"v010001",1,"1995","硕士",1613892588915,2,5,"test",8,26,"ordinary","triangle","ordinary","match","n","n","761.3000000000466","1"
"v010001",1,"1995","硕士",1613892590984,2,5,"test",9,26,"ordinary","triangle","ordinary","match","n","n","645.5999999998603","1"
"v010001",1,"1995","硕士",1613892592936,2,5,"test",10,26,"good","square","good","match","n","n","541.4000000001397","1"
"v010001",1,"1995","硕士",1613892594788,2,5,"test",11,26,"ordinary","circular","bad","mismatch","m","m","709.6000000000931","1"
"v010001",1,"1995","硕士",1613892596809,2,5,"test",12,26,"bad","square","good","mismatch","m","m","811.7999999995809","1"
"v010001",1,"1995","硕士",1613892598928,2,5,"test",1,27,"good","square","good","match","n","n","471.49999999976717","1"
"v010001",1,"1995","硕士",1613892600708,2,5,"test",2,27,"ordinary","triangle","ordinary","match","n","n","703.1999999999534","1"
"v010001",1,"1995","硕士",1613892602720,2,5,"test",3,27,"bad","square","good","mismatch","m","m","752.6999999992549","1"
"v010001",1,"1995","硕士",1613892604780,2,5,"test",4,27,"bad","circular","bad","match","n","n","863.4000000003725","1"
"v010001",1,"1995","硕士",1613892606962,2,5,"test",5,27,"good","square","good","match","n","n","628.899999999674","1"
"v010001",1,"1995","硕士",1613892608904,2,5,"test",6,27,"ordinary","triangle","ordinary","match","n","n","702.4000000001397","1"
"v010001",1,"1995","硕士",1613892610914,2,5,"test",7,27,"bad","circular","bad","match","n","m","855.1000000005588","0"
"v010001",1,"1995","硕士",1613892613078,2,5,"test",8,27,"good","triangle","ordinary","mismatch","m","m","844.3999999999069","1"
"v010001",1,"1995","硕士",1613892615233,2,5,"test",9,27,"ordinary","circular","bad","mismatch","m","n","1147.8999999999069","0"
"v010001",1,"1995","硕士",1613892617690,2,5,"test",10,27,"ordinary","square","good","mismatch","m","m","843.0000000006985","1"
"v010001",1,"1995","硕士",1613892619840,2,5,"test",11,27,"good","circular","bad","mismatch","m","m","806.6999999990221","1"
"v010001",1,"1995","硕士",1613892621953,2,5,"test",12,27,"bad","triangle","ordinary","mismatch","m","n","791.9000000001397","0"
"v010001",1,"1995","硕士",1613892624054,2,5,"test",1,28,"bad","triangle","ordinary","mismatch","m","m","961.5000000011642","1"
"v010001",1,"1995","硕士",1613892626322,2,5,"test",2,28,"bad","circular","bad","match","n","n","1038.8999999994412","1"
"v010001",1,"1995","硕士",1613892628669,2,5,"test",3,28,"ordinary","triangle","ordinary","match","n","n","700.1999999992549","1"
"v010001",1,"1995","硕士",1613892630680,2,5,"test",4,28,"bad","circular","bad","match","n","n","800.7999999991152","1"
"v010001",1,"1995","硕士",1613892632788,2,5,"test",5,28,"good","circular","bad","mismatch","m","m","667.4000000003725","1"
"v010001",1,"1995","硕士",1613892634765,2,5,"test",6,28,"ordinary","triangle","ordinary","match","n","n","896.3000000002794","1"
"v010001",1,"1995","硕士",1613892636969,2,5,"test",7,28,"bad","square","good","mismatch","m","m","722.1000000007916","1"
"v010001",1,"1995","硕士",1613892638998,2,5,"test",8,28,"ordinary","circular","bad","mismatch","m","m","862.6999999997206","1"
"v010001",1,"1995","硕士",1613892641174,2,5,"test",9,28,"good","triangle","ordinary","mismatch","m","m","861.0000000006985","1"
"v010001",1,"1995","硕士",1613892643343,2,5,"test",10,28,"ordinary","square","good","mismatch","m","m","876.6000000014901","1"
"v010001",1,"1995","硕士",1613892645525,2,5,"test",11,28,"good","square","good","match","n","n","522.3999999999069","1"
"v010001",1,"1995","硕士",1613892647357,2,5,"test",12,28,"good","square","good","match","n","n","892.7999999995809","1"
"v010001",1,"1995","硕士",1613892649556,2,5,"test",1,29,"good","circular","bad","mismatch","m","m","682.6000000000931","1"
"v010001",1,"1995","硕士",1613892651546,2,5,"test",2,29,"bad","circular","bad","match","n","n","941.8000000005122","1"
"v010001",1,"1995","硕士",1613892653794,2,5,"test",3,29,"ordinary","triangle","ordinary","match","n","n","703.1999999999534","1"
"v010001",1,"1995","硕士",1613892655810,2,5,"test",4,29,"bad","circular","bad","match","n","n","867.7000000006519","1"
"v010001",1,"1995","硕士",1613892657989,2,5,"test",5,29,"good","square","good","match","n","n","753.5000000006985","1"
"v010001",1,"1995","硕士",1613892660052,2,5,"test",6,29,"ordinary","circular","bad","mismatch","m","n","973.0999999993946","0"
"v010001",1,"1995","硕士",1613892662335,2,5,"test",7,29,"ordinary","square","good","mismatch","m","m","982.4000000008382","1"
"v010001",1,"1995","硕士",1613892664623,2,5,"test",8,29,"good","triangle","ordinary","mismatch","m","m","814.499999998603","1"
"v010001",1,"1995","硕士",1613892666745,2,5,"test",9,29,"bad","square","good","mismatch","m","m","938.2999999998137","1"
"v010001",1,"1995","硕士",1613892668992,2,5,"test",10,29,"ordinary","triangle","ordinary","match","n","n","742.5999999993946","1"
"v010001",1,"1995","硕士",1613892671047,2,5,"test",11,29,"good","square","good","match","n","m","848.1000000010245","0"
"v010001",1,"1995","硕士",1613892673208,2,5,"test",12,29,"bad","triangle","ordinary","mismatch","m","m","873.4000000003725","1"
"v010001",1,"1995","硕士",1613892675388,2,5,"test",1,30,"good","square","good","match","n","n","976.2999999986496","1"
"v010001",1,"1995","硕士",1613892677672,2,5,"test",2,30,"bad","circular","bad","match","n","n","903.2000000006519","1"
"v010001",1,"1995","硕士",1613892679882,2,5,"test",3,30,"ordinary","triangle","ordinary","match","n","n","750.7999999998137","1"
"v010001",1,"1995","硕士",1613892681941,2,5,"test",4,30,"bad","circular","bad","match","n","n","856.2999999993481","1"
"v010001",1,"1995","硕士",1613892684106,2,5,"test",5,30,"good","triangle","ordinary","mismatch","m","m","980.6000000007916","1"
"v010001",1,"1995","硕士",1613892686392,2,5,"test",6,30,"bad","triangle","ordinary","mismatch","m","m","1046.5999999998603","1"
"v010001",1,"1995","硕士",1613892688746,2,5,"test",7,30,"bad","square","good","mismatch","m","m","1078.4999999997672","1"
"v010001",1,"1995","硕士",1613892691132,2,5,"test",8,30,"ordinary","square","good","mismatch","m","m","864.6999999999534","1"
"v010001",1,"1995","硕士",1613892693305,2,5,"test",9,30,"good","square","good","match","n","m","715.2000000004191","0"
"v010001",1,"1995","硕士",1613892695330,2,5,"test",10,30,"ordinary","triangle","ordinary","match","n","n","968.8999999999069","1"
"v010001",1,"1995","硕士",1613892697605,2,5,"test",11,30,"ordinary","circular","bad","mismatch","m","m","717.4999999988358","1"
"v010001",1,"1995","硕士",1613892699630,2,5,"test",12,30,"good","circular","bad","mismatch","m","m","1006.8999999985099","1"
"v010001",1,"1995","硕士",1613892737449,2,6,"test",1,31,"ordinary","square","good","mismatch","m","m","785.4999999997672","1"
"v010001",1,"1995","硕士",1613892739541,2,6,"test",2,31,"ordinary","triangle","ordinary","match","n","n","738.9000000003725","1"
"v010001",1,"1995","硕士",1613892741587,2,6,"test",3,31,"ordinary","circular","bad","mismatch","m","m","790.7000000013504","1"
"v010001",1,"1995","硕士",1613892743685,2,6,"test",4,31,"bad","square","good","mismatch","m","m","873.6000000007916","1"
"v010001",1,"1995","硕士",1613892745867,2,6,"test",5,31,"good","triangle","ordinary","mismatch","m","m","713.2999999993481","1"
"v010001",1,"1995","硕士",1613892747888,2,6,"test",6,31,"bad","circular","bad","match","n","n","867.900000001071","1"
"v010001",1,"1995","硕士",1613892750063,2,6,"test",7,31,"bad","triangle","ordinary","mismatch","m","m","718.1999999992549","1"
"v010001",1,"1995","硕士",1613892752089,2,6,"test",8,31,"good","square","good","match","n","n","705","1"
"v010001",1,"1995","硕士",1613892754101,2,6,"test",9,31,"bad","circular","bad","match","n","n","734.9000000013039","1"
"v010001",1,"1995","硕士",1613892756145,2,6,"test",10,31,"good","square","good","match","n","n","770.8000000002794","1"
"v010001",1,"1995","硕士",1613892758221,2,6,"test",11,31,"ordinary","triangle","ordinary","match","n","n","1038.9999999988358","1"
"v010001",1,"1995","硕士",1613892760567,2,6,"test",12,31,"good","circular","bad","mismatch","m","m","933.8999999999069","1"
"v010001",1,"1995","硕士",1613892762808,2,6,"test",1,32,"good","circular","bad","mismatch","m","m","704.4000000006054","1"
"v010001",1,"1995","硕士",1613892764827,2,6,"test",2,32,"good","square","good","match","n","n","633.8000000014435","1"
"v010001",1,"1995","硕士",1613892766769,2,6,"test",3,32,"bad","square","good","mismatch","m","m","671.999999998603","1"
"v010001",1,"1995","硕士",1613892768751,2,6,"test",4,32,"good","triangle","ordinary","mismatch","m","m","665.6999999994878","1"
"v010001",1,"1995","硕士",1613892770726,2,6,"test",5,32,"ordinary","triangle","ordinary","match","n","n","820.5999999991618","1"
"v010001",1,"1995","硕士",1613892772857,2,6,"test",6,32,"good","square","good","match","n","n","726.7000000011176","1"
"v010001",1,"1995","硕士",1613892774895,2,6,"test",7,32,"ordinary","circular","bad","mismatch","m","m","633.7000000004191","1"
"v010001",1,"1995","硕士",1613892776838,2,6,"test",8,32,"bad","circular","bad","match","n","m","700.5000000009313","0"
"v010001",1,"1995","硕士",1613892778846,2,6,"test",9,32,"ordinary","square","good","mismatch","m","m","854.9999999995343","1"
"v010001",1,"1995","硕士",1613892781009,2,6,"test",10,32,"bad","triangle","ordinary","mismatch","m","m","765.0999999986961","1"
"v010001",1,"1995","硕士",1613892783081,2,6,"test",11,32,"ordinary","triangle","ordinary","match","n","n","851.399999999674","1"
"v010001",1,"1995","硕士",1613892785241,2,6,"test",12,32,"bad","circular","bad","match","n","n","772.9999999993015","1"
"v010001",1,"1995","硕士",1613892787323,2,6,"test",1,33,"ordinary","triangle","ordinary","match","n","n","938.2000000006519","1"
"v010001",1,"1995","硕士",1613892789569,2,6,"test",2,33,"bad","circular","bad","match","n","n","765.3000000007451","1"
"v010001",1,"1995","硕士",1613892791644,2,6,"test",3,33,"bad","triangle","ordinary","mismatch","m","m","704.9999999997672","1"
"v010001",1,"1995","硕士",1613892793660,2,6,"test",4,33,"good","circular","bad","mismatch","m","n","781.5000000009313","0"
"v010001",1,"1995","硕士",1613892795751,2,6,"test",5,33,"bad","circular","bad","match","n","m","856.6000000010245","0"
"v010001",1,"1995","硕士",1613892797915,2,6,"test",6,33,"ordinary","circular","bad","mismatch","m","m","841.1000000014901","1"
"v010001",1,"1995","硕士",1613892800066,2,6,"test",7,33,"ordinary","square","good","mismatch","m","m","868.400000001071","1"
"v010001",1,"1995","硕士",1613892802244,2,6,"test",8,33,"good","triangle","ordinary","mismatch","m","NA","null","0"
"v010001",1,"1995","硕士",1613892804754,2,6,"test",9,33,"good","square","good","match","n","n","759.7000000006519","1"
"v010001",1,"1995","硕士",1613892806821,2,6,"test",10,33,"ordinary","triangle","ordinary","match","n","n","922.3999999994412","1"
"v010001",1,"1995","硕士",1613892809053,2,6,"test",11,33,"bad","square","good","mismatch","m","n","905.8000000005122","0"
"v010001",1,"1995","硕士",1613892811267,2,6,"test",12,33,"good","square","good","match","n","NA","null","0"
"v010001",1,"1995","硕士",1613892813777,2,6,"test",1,34,"good","square","good","match","n","n","551.7000000001863","1"
"v010001",1,"1995","硕士",1613892815637,2,6,"test",2,34,"good","circular","bad","mismatch","m","m","858.2999999998137","1"
"v010001",1,"1995","硕士",1613892817809,2,6,"test",3,34,"bad","circular","bad","match","n","n","781.600000000326","1"
"v010001",1,"1995","硕士",1613892819899,2,6,"test",4,34,"ordinary","triangle","ordinary","match","n","n","705.7000000004191","1"
"v010001",1,"1995","硕士",1613892821911,2,6,"test",5,34,"ordinary","circular","bad","mismatch","m","m","885.7999999998137","1"
"v010001",1,"1995","硕士",1613892824104,2,6,"test",6,34,"bad","square","good","mismatch","m","m","788.1999999990221","1"
"v010001",1,"1995","硕士",1613892826201,2,6,"test",7,34,"bad","triangle","ordinary","mismatch","m","m","738.100000000326","1"
"v010001",1,"1995","硕士",1613892828248,2,6,"test",8,34,"ordinary","square","good","mismatch","m","NA","null","0"
"v010001",1,"1995","硕士",1613892830761,2,6,"test",9,34,"bad","circular","bad","match","n","m","1046.999999998603","0"
"v010001",1,"1995","硕士",1613892833113,2,6,"test",10,34,"good","square","good","match","n","n","693.9999999995343","1"
"v010001",1,"1995","硕士",1613892835119,2,6,"test",11,34,"good","triangle","ordinary","mismatch","m","m","1082.0999999996275","1"
"v010001",1,"1995","硕士",1613892837510,2,6,"test",12,34,"ordinary","triangle","ordinary","match","n","n","870.8999999999069","1"
"v010001",1,"1995","硕士",1613892839691,2,6,"test",1,35,"ordinary","triangle","ordinary","match","n","n","782.100000000326","1"
"v010001",1,"1995","硕士",1613892841780,2,6,"test",2,35,"bad","square","good","mismatch","m","m","1148.9000000001397","1"
"v010001",1,"1995","硕士",1613892844240,2,6,"test",3,35,"bad","triangle","ordinary","mismatch","m","m","906.8999999999069","1"
"v010001",1,"1995","硕士",1613892846456,2,6,"test",4,35,"good","square","good","match","n","n","931.7000000008848","1"
"v010001",1,"1995","硕士",1613892848696,2,6,"test",5,35,"good","square","good","match","n","n","992.8999999992084","1"
"v010001",1,"1995","硕士",1613892851000,2,6,"test",6,35,"good","circular","bad","mismatch","m","m","697.400000001071","1"
"v010001",1,"1995","硕士",1613892853005,2,6,"test",7,35,"ordinary","circular","bad","mismatch","m","NA","null","0"
"v010001",1,"1995","硕士",1613892855515,2,6,"test",8,35,"ordinary","triangle","ordinary","match","n","n","655.6999999992549","1"
"v010001",1,"1995","硕士",1613892857478,2,6,"test",9,35,"bad","circular","bad","match","n","n","1029.4000000013039","1"
"v010001",1,"1995","硕士",1613892859815,2,6,"test",10,35,"bad","circular","bad","match","n","n","677.7000000001863","1"
"v010001",1,"1995","硕士",1613892861806,2,6,"test",11,35,"good","triangle","ordinary","mismatch","m","m","1069.9000000003725","1"
"v010001",1,"1995","硕士",1613892864187,2,6,"test",12,35,"ordinary","square","good","mismatch","m","NA","null","0"
"v010001",1,"1995","硕士",1613892866696,2,6,"test",1,36,"good","circular","bad","mismatch","m","m","790.8999999999069","1"
"v010001",1,"1995","硕士",1613892868799,2,6,"test",2,36,"ordinary","triangle","ordinary","match","n","m","858.8000000000466","0"
"v010001",1,"1995","硕士",1613892870967,2,6,"test",3,36,"bad","square","good","mismatch","m","m","821.4000000006054","1"
"v010001",1,"1995","硕士",1613892873095,2,6,"test",4,36,"ordinary","circular","bad","mismatch","m","m","967.7000000011176","1"
"v010001",1,"1995","硕士",1613892875374,2,6,"test",5,36,"bad","triangle","ordinary","mismatch","m","m","793.6000000007916","1"
"v010001",1,"1995","硕士",1613892877477,2,6,"test",6,36,"good","square","good","match","n","n","915.3000000005122","1"
"v010001",1,"1995","硕士",1613892879700,2,6,"test",7,36,"ordinary","square","good","mismatch","m","m","919.3999999989755","1"
"v010001",1,"1995","硕士",1613892881931,2,6,"test",8,36,"bad","circular","bad","match","n","m","680.7000000008848","0"
"v010001",1,"1995","硕士",1613892883921,2,6,"test",9,36,"good","square","good","match","n","n","1006.7999999993481","1"
"v010001",1,"1995","硕士",1613892886237,2,6,"test",10,36,"good","triangle","ordinary","mismatch","m","m","695.1999999999534","1"
"v010001",1,"1995","硕士",1613892888238,2,6,"test",11,36,"bad","circular","bad","match","n","n","751.6999999987893","1"
"v010001",1,"1995","硕士",1613892890296,2,6,"test",12,36,"ordinary","triangle","ordinary","match","n","n","819.8000000012107","1"
"v010003",2,"1998","大学",1613894992103,1,0,"prac",1,1,"bad","triangle","bad","match","n","NA","null","0"
"v010003",2,"1998","大学",1613894994611,1,0,"prac",2,1,"good","circular","good","match","n","n","836","1"
"v010003",2,"1998","大学",1613894996751,1,0,"prac",3,1,"ordinary","square","ordinary","match","n","m","598.9999999999709","0"
"v010003",2,"1998","大学",1613894998653,1,0,"prac",4,1,"ordinary","triangle","bad","mismatch","m","NA","null","0"
"v010003",2,"1998","大学",1613895001163,1,0,"prac",5,1,"bad","circular","good","mismatch","m","NA","null","0"
"v010003",2,"1998","大学",1613895003667,1,0,"prac",6,1,"bad","triangle","bad","match","n","n","588","1"
"v010003",2,"1998","大学",1613895005558,1,0,"prac",7,1,"bad","square","ordinary","mismatch","m","m","677","1"
"v010003",2,"1998","大学",1613895007539,1,0,"prac",8,1,"good","circular","good","match","n","n","537","1"
"v010003",2,"1998","大学",1613895009380,1,0,"prac",9,1,"ordinary","square","ordinary","match","n","m","475","0"
"v010003",2,"1998","大学",1613895011160,1,0,"prac",10,1,"good","triangle","bad","mismatch","m","n","348.0000000000291","0"
"v010003",2,"1998","大学",1613895012810,1,0,"prac",11,1,"good","square","ordinary","mismatch","m","n","633","0"
"v010003",2,"1998","大学",1613895014747,1,0,"prac",12,1,"ordinary","circular","good","mismatch","m","m","629.0000000000291","1"
"v010003",2,"1998","大学",1613895055350,1,1,"prac",1,2,"bad","circular","good","mismatch","m","m","947","1"
"v010003",2,"1998","大学",1613895057601,1,1,"prac",2,2,"good","circular","good","match","n","n","476","1"
"v010003",2,"1998","大学",1613895059381,1,1,"prac",3,2,"ordinary","square","ordinary","match","n","m","791","0"
"v010003",2,"1998","大学",1613895061476,1,1,"prac",4,2,"bad","triangle","bad","match","n","m","754","0"
"v010003",2,"1998","大学",1613895063534,1,1,"prac",5,2,"bad","square","ordinary","mismatch","m","m","660","1"
"v010003",2,"1998","大学",1613895065498,1,1,"prac",6,2,"ordinary","triangle","bad","mismatch","m","n","1026","0"
"v010003",2,"1998","大学",1613895067829,1,1,"prac",7,2,"good","triangle","bad","mismatch","m","m","801","1"
"v010003",2,"1998","大学",1613895069933,1,1,"prac",8,2,"ordinary","circular","good","mismatch","m","m","677","1"
"v010003",2,"1998","大学",1613895071914,1,1,"prac",9,2,"bad","triangle","bad","match","n","m","604","0"
"v010003",2,"1998","大学",1613895073820,1,1,"prac",10,2,"ordinary","square","ordinary","match","n","NA","null","0"
"v010003",2,"1998","大学",1613895076324,1,1,"prac",11,2,"good","square","ordinary","mismatch","m","m","722","1"
"v010003",2,"1998","大学",1613895078351,1,1,"prac",12,2,"good","circular","good","match","n","m","814.0000000000582","0"
"v010003",2,"1998","大学",1613895131736,1,1,"prac",1,3,"ordinary","circular","good","mismatch","m","m","723.9999999999418","1"
"v010003",2,"1998","大学",1613895133764,1,1,"prac",2,3,"good","circular","good","match","n","m","411","0"
"v010003",2,"1998","大学",1613895135480,1,1,"prac",3,3,"bad","square","ordinary","mismatch","m","n","756.0000000000582","0"
"v010003",2,"1998","大学",1613895137542,1,1,"prac",4,3,"good","circular","good","match","n","n","714","1"
"v010003",2,"1998","大学",1613895139559,1,1,"prac",5,3,"ordinary","square","ordinary","match","n","m","595","0"
"v010003",2,"1998","大学",1613895141457,1,1,"prac",6,3,"bad","triangle","bad","match","n","n","876","1"
"v010003",2,"1998","大学",1613895143637,1,1,"prac",7,3,"ordinary","square","ordinary","match","n","m","1173","0"
"v010003",2,"1998","大学",1613895146115,1,1,"prac",8,3,"bad","triangle","bad","match","n","m","852","0"
"v010003",2,"1998","大学",1613895148272,1,1,"prac",9,3,"good","triangle","bad","mismatch","m","n","619.9999999999418","0"
"v010003",2,"1998","大学",1613895150196,1,1,"prac",10,3,"good","square","ordinary","mismatch","m","m","678.0000000000582","1"
"v010003",2,"1998","大学",1613895152178,1,1,"prac",11,3,"bad","circular","good","mismatch","m","n","869","0"
"v010003",2,"1998","大学",1613895154350,1,1,"prac",12,3,"ordinary","triangle","bad","mismatch","m","m","1017","1"
"v010003",2,"1998","大学",1613895464097,1,1,"prac",1,4,"bad","triangle","bad","match","n","n","413","1"
"v010003",2,"1998","大学",1613895465816,1,1,"prac",2,4,"good","triangle","bad","mismatch","m","m","536.9999999998836","1"
"v010003",2,"1998","大学",1613895467656,1,1,"prac",3,4,"good","circular","good","match","n","n","301","1"
"v010003",2,"1998","大学",1613895469260,1,1,"prac",4,4,"ordinary","square","ordinary","match","n","n","767","1"
"v010003",2,"1998","大学",1613895471330,1,1,"prac",5,4,"bad","triangle","bad","match","n","m","588","0"
"v010003",2,"1998","大学",1613895473222,1,1,"prac",6,4,"good","circular","good","match","n","n","839.0000000001164","1"
"v010003",2,"1998","大学",1613895475365,1,1,"prac",7,4,"ordinary","circular","good","mismatch","m","m","935","1"
"v010003",2,"1998","大学",1613895477602,1,1,"prac",8,4,"ordinary","square","ordinary","match","n","n","888","1"
"v010003",2,"1998","大学",1613895479795,1,1,"prac",9,4,"good","square","ordinary","mismatch","m","n","713","0"
"v010003",2,"1998","大学",1613895481812,1,1,"prac",10,4,"bad","circular","good","mismatch","m","m","910","1"
"v010003",2,"1998","大学",1613895484024,1,1,"prac",11,4,"bad","square","ordinary","mismatch","m","n","894","0"
"v010003",2,"1998","大学",1613895486221,1,1,"prac",12,4,"ordinary","triangle","bad","mismatch","m","m","1040","1"
"v010003",2,"1998","大学",1613895523498,1,1,"test",1,1,"good","triangle","bad","mismatch","m","m","692","1"
"v010003",2,"1998","大学",1613895525494,1,1,"test",2,1,"ordinary","triangle","bad","mismatch","m","m","616.9999999998836","1"
"v010003",2,"1998","大学",1613895527416,1,1,"test",3,1,"ordinary","square","ordinary","match","n","m","616","0"
"v010003",2,"1998","大学",1613895529334,1,1,"test",4,1,"good","square","ordinary","mismatch","m","m","782","1"
"v010003",2,"1998","大学",1613895531421,1,1,"test",5,1,"good","circular","good","match","n","n","457","1"
"v010003",2,"1998","大学",1613895533183,1,1,"test",6,1,"ordinary","square","ordinary","match","n","m","686","0"
"v010003",2,"1998","大学",1613895535174,1,1,"test",7,1,"ordinary","circular","good","mismatch","m","n","780.9999999998836","0"
"v010003",2,"1998","大学",1613895537257,1,1,"test",8,1,"bad","circular","good","mismatch","m","m","880","1"
"v010003",2,"1998","大学",1613895539440,1,1,"test",9,1,"bad","triangle","bad","match","n","n","869","1"
"v010003",2,"1998","大学",1613895541611,1,1,"test",10,1,"bad","triangle","bad","match","n","m","653.0000000001164","0"
"v010003",2,"1998","大学",1613895543568,1,1,"test",11,1,"bad","square","ordinary","mismatch","m","n","708","0"
"v010003",2,"1998","大学",1613895545581,1,1,"test",12,1,"good","circular","good","match","n","n","482","1"
"v010003",2,"1998","大学",1613895547368,1,1,"test",1,2,"bad","circular","good","mismatch","m","m","769","1"
"v010003",2,"1998","大学",1613895549440,1,1,"test",2,2,"ordinary","triangle","bad","mismatch","m","m","753","1"
"v010003",2,"1998","大学",1613895551495,1,1,"test",3,2,"ordinary","square","ordinary","match","n","n","808","1"
"v010003",2,"1998","大学",1613895553606,1,1,"test",4,2,"ordinary","square","ordinary","match","n","m","620","0"
"v010003",2,"1998","大学",1613895555531,1,1,"test",5,2,"bad","triangle","bad","match","n","n","937","1"
"v010003",2,"1998","大学",1613895557773,1,1,"test",6,2,"good","square","ordinary","mismatch","m","m","652","1"
"v010003",2,"1998","大学",1613895559729,1,1,"test",7,2,"bad","triangle","bad","match","n","n","734","1"
"v010003",2,"1998","大学",1613895561766,1,1,"test",8,2,"ordinary","circular","good","mismatch","m","m","705","1"
"v010003",2,"1998","大学",1613895563776,1,1,"test",9,2,"good","triangle","bad","mismatch","m","n","628.9999999998836","0"
"v010003",2,"1998","大学",1613895565708,1,1,"test",10,2,"bad","square","ordinary","mismatch","m","m","674","1"
"v010003",2,"1998","大学",1613895567685,1,1,"test",11,2,"good","circular","good","match","n","n","507","1"
"v010003",2,"1998","大学",1613895569496,1,1,"test",12,2,"good","circular","good","match","n","m","851.9999999998836","0"
"v010003",2,"1998","大学",1613895571654,1,1,"test",1,3,"ordinary","square","ordinary","match","n","m","557","0"
"v010003",2,"1998","大学",1613895573515,1,1,"test",2,3,"ordinary","square","ordinary","match","n","n","659","1"
"v010003",2,"1998","大学",1613895575477,1,1,"test",3,3,"bad","circular","good","mismatch","m","n","831","0"
"v010003",2,"1998","大学",1613895577611,1,1,"test",4,3,"bad","triangle","bad","match","n","n","753.9999999998836","1"
"v010003",2,"1998","大学",1613895579670,1,1,"test",5,3,"ordinary","triangle","bad","mismatch","m","m","703","1"
"v010003",2,"1998","大学",1613895581676,1,1,"test",6,3,"ordinary","circular","good","mismatch","m","n","738","0"
"v010003",2,"1998","大学",1613895583716,1,1,"test",7,3,"good","circular","good","match","n","n","406","1"
"v010003",2,"1998","大学",1613895585427,1,1,"test",8,3,"good","triangle","bad","mismatch","m","m","752","1"
"v010003",2,"1998","大学",1613895587482,1,1,"test",9,3,"bad","triangle","bad","match","n","n","743","1"
"v010003",2,"1998","大学",1613895589528,1,1,"test",10,3,"bad","square","ordinary","mismatch","m","m","608","1"
"v010003",2,"1998","大学",1613895591439,1,1,"test",11,3,"good","circular","good","match","n","n","584","1"
"v010003",2,"1998","大学",1613895593326,1,1,"test",12,3,"good","square","ordinary","mismatch","m","m","640","1"
"v010003",2,"1998","大学",1613895595273,1,1,"test",1,4,"bad","triangle","bad","match","n","NA","null","0"
"v010003",2,"1998","大学",1613895597778,1,1,"test",2,4,"good","circular","good","match","n","NA","null","0"
"v010003",2,"1998","大学",1613895600283,1,1,"test",3,4,"ordinary","square","ordinary","match","n","NA","null","0"
"v010003",2,"1998","大学",1613895602788,1,1,"test",4,4,"ordinary","square","ordinary","match","n","NA","null","0"
"v010003",2,"1998","大学",1613895605291,1,1,"test",5,4,"good","square","ordinary","mismatch","m","n","550","0"
"v010003",2,"1998","大学",1613895607145,1,1,"test",6,4,"good","circular","good","match","n","n","541.9999999998836","1"
"v010003",2,"1998","大学",1613895608990,1,1,"test",7,4,"good","triangle","bad","mismatch","m","m","935","1"
"v010003",2,"1998","大学",1613895611229,1,1,"test",8,4,"bad","triangle","bad","match","n","n","754","1"
"v010003",2,"1998","大学",1613895613286,1,1,"test",9,4,"ordinary","circular","good","mismatch","m","m","630","1"
"v010003",2,"1998","大学",1613895615220,1,1,"test",10,4,"bad","square","ordinary","mismatch","m","m","619","1"
"v010003",2,"1998","大学",1613895617142,1,1,"test",11,4,"bad","circular","good","mismatch","m","m","706","1"
"v010003",2,"1998","大学",1613895619152,1,1,"test",12,4,"ordinary","triangle","bad","mismatch","m","m","819","1"
"v010003",2,"1998","大学",1613895621275,1,1,"test",1,5,"good","circular","good","match","n","n","495","1"
"v010003",2,"1998","大学",1613895623076,1,1,"test",2,5,"good","square","ordinary","mismatch","m","m","619","1"
"v010003",2,"1998","大学",1613895625000,1,1,"test",3,5,"ordinary","square","ordinary","match","n","m","656","0"
"v010003",2,"1998","大学",1613895626958,1,1,"test",4,5,"ordinary","circular","good","mismatch","m","n","700","0"
"v010003",2,"1998","大学",1613895628961,1,1,"test",5,5,"good","circular","good","match","n","n","604","1"
"v010003",2,"1998","大学",1613895630868,1,1,"test",6,5,"ordinary","triangle","bad","mismatch","m","n","961","0"
"v010003",2,"1998","大学",1613895633133,1,1,"test",7,5,"ordinary","square","ordinary","match","n","m","643","0"
"v010003",2,"1998","大学",1613895635080,1,1,"test",8,5,"bad","square","ordinary","mismatch","m","m","810.0000000001164","1"
"v010003",2,"1998","大学",1613895637194,1,1,"test",9,5,"bad","circular","good","mismatch","m","m","921.9999999998836","1"
"v010003",2,"1998","大学",1613895639419,1,1,"test",10,5,"good","triangle","bad","mismatch","m","n","519","0"
"v010003",2,"1998","大学",1613895641244,1,1,"test",11,5,"bad","triangle","bad","match","n","m","618","0"
"v010003",2,"1998","大学",1613895643166,1,1,"test",12,5,"bad","triangle","bad","match","n","n","680","1"
"v010003",2,"1998","大学",1613895645148,1,1,"test",1,6,"ordinary","triangle","bad","mismatch","m","m","532","1"
"v010003",2,"1998","大学",1613895646983,1,1,"test",2,6,"bad","circular","good","mismatch","m","n","789","0"
"v010003",2,"1998","大学",1613895649076,1,1,"test",3,6,"good","circular","good","match","n","n","579","1"
"v010003",2,"1998","大学",1613895650959,1,1,"test",4,6,"good","circular","good","match","n","n","704","1"
"v010003",2,"1998","大学",1613895652967,1,1,"test",5,6,"bad","square","ordinary","mismatch","m","m","644","1"
"v010003",2,"1998","大学",1613895654914,1,1,"test",6,6,"bad","triangle","bad","match","n","n","776","1"
"v010003",2,"1998","大学",1613895656996,1,1,"test",7,6,"ordinary","circular","good","mismatch","m","m","949","1"
"v010003",2,"1998","大学",1613895659250,1,1,"test",8,6,"good","square","ordinary","mismatch","m","m","684.0000000001164","1"
"v010003",2,"1998","大学",1613895661238,1,1,"test",9,6,"ordinary","square","ordinary","match","n","m","986","0"
"v010003",2,"1998","大学",1613895663529,1,1,"test",10,6,"bad","triangle","bad","match","n","m","663.0000000001164","0"
"v010003",2,"1998","大学",1613895665497,1,1,"test",11,6,"good","triangle","bad","mismatch","m","n","496.9999999998836","0"
"v010003",2,"1998","大学",1613895667297,1,1,"test",12,6,"ordinary","square","ordinary","match","n","n","882","1"
"v010003",2,"1998","大学",1613895706949,1,2,"test",1,7,"bad","square","ordinary","mismatch","m","m","644","1"
"v010003",2,"1998","大学",1613895708898,1,2,"test",2,7,"ordinary","square","ordinary","match","n","m","696","0"
"v010003",2,"1998","大学",1613895710898,1,2,"test",3,7,"bad","triangle","bad","match","n","n","685.0000000001164","1"
"v010003",2,"1998","大学",1613895712885,1,2,"test",4,7,"ordinary","circular","good","mismatch","m","m","615","1"
"v010003",2,"1998","大学",1613895714802,1,2,"test",5,7,"ordinary","square","ordinary","match","n","m","547","0"
"v010003",2,"1998","大学",1613895716651,1,2,"test",6,7,"bad","circular","good","mismatch","m","m","949","1"
"v010003",2,"1998","大学",1613895718903,1,2,"test",7,7,"good","triangle","bad","mismatch","m","n","554.0000000001164","0"
"v010003",2,"1998","大学",1613895720760,1,2,"test",8,7,"good","circular","good","match","n","n","524.9999999998836","1"
"v010003",2,"1998","大学",1613895722588,1,2,"test",9,7,"bad","triangle","bad","match","n","n","769","1"
"v010003",2,"1998","大学",1613895724661,1,2,"test",10,7,"good","square","ordinary","mismatch","m","m","631","1"
"v010003",2,"1998","大学",1613895726596,1,2,"test",11,7,"good","circular","good","match","n","n","614","1"
"v010003",2,"1998","大学",1613895728514,1,2,"test",12,7,"ordinary","triangle","bad","mismatch","m","n","917","0"
"v010003",2,"1998","大学",1613895730734,1,2,"test",1,8,"good","circular","good","match","n","n","582","1"
"v010003",2,"1998","大学",1613895732620,1,2,"test",2,8,"bad","square","ordinary","mismatch","m","n","807","0"
"v010003",2,"1998","大学",1613895734730,1,2,"test",3,8,"bad","circular","good","mismatch","m","NA","null","0"
"v010003",2,"1998","大学",1613895737235,1,2,"test",4,8,"ordinary","circular","good","mismatch","m","m","686","1"
"v010003",2,"1998","大学",1613895739225,1,2,"test",5,8,"good","circular","good","match","n","n","538","1"
"v010003",2,"1998","大学",1613895741067,1,2,"test",6,8,"bad","triangle","bad","match","n","n","806","1"
"v010003",2,"1998","大学",1613895743177,1,2,"test",7,8,"good","triangle","bad","mismatch","m","m","808","1"
"v010003",2,"1998","大学",1613895745290,1,2,"test",8,8,"ordinary","triangle","bad","mismatch","m","m","722","1"
"v010003",2,"1998","大学",1613895747315,1,2,"test",9,8,"ordinary","square","ordinary","match","n","n","828","1"
"v010003",2,"1998","大学",1613895749445,1,2,"test",10,8,"good","square","ordinary","mismatch","m","m","632","1"
"v010003",2,"1998","大学",1613895751381,1,2,"test",11,8,"ordinary","square","ordinary","match","n","m","1027","0"
"v010003",2,"1998","大学",1613895753711,1,2,"test",12,8,"bad","triangle","bad","match","n","n","651","1"
"v010003",2,"1998","大学",1613895755666,1,2,"test",1,9,"bad","triangle","bad","match","n","n","832","1"
"v010003",2,"1998","大学",1613895757801,1,2,"test",2,9,"ordinary","circular","good","mismatch","m","m","684","1"
"v010003",2,"1998","大学",1613895759788,1,2,"test",3,9,"bad","circular","good","mismatch","m","m","597.0000000001164","1"
"v010003",2,"1998","大学",1613895761688,1,2,"test",4,9,"bad","triangle","bad","match","n","n","764.9999999998836","1"
"v010003",2,"1998","大学",1613895763756,1,2,"test",5,9,"good","circular","good","match","n","n","746","1"
"v010003",2,"1998","大学",1613895765805,1,2,"test",6,9,"ordinary","square","ordinary","match","n","m","617","0"
"v010003",2,"1998","大学",1613895767726,1,2,"test",7,9,"good","circular","good","match","n","n","585","1"
"v010003",2,"1998","大学",1613895769614,1,2,"test",8,9,"good","square","ordinary","mismatch","m","m","581","1"
"v010003",2,"1998","大学",1613895771497,1,2,"test",9,9,"bad","square","ordinary","mismatch","m","m","1184","1"
"v010003",2,"1998","大学",1613895773986,1,2,"test",10,9,"ordinary","triangle","bad","mismatch","m","n","812","0"
"v010003",2,"1998","大学",1613895776101,1,2,"test",11,9,"good","triangle","bad","mismatch","m","n","445","0"
"v010003",2,"1998","大学",1613895777850,1,2,"test",12,9,"ordinary","square","ordinary","match","n","n","884","1"
"v010003",2,"1998","大学",1613895780038,1,2,"test",1,10,"good","circular","good","match","n","n","555.9999999998836","1"
"v010003",2,"1998","大学",1613895781900,1,2,"test",2,10,"good","circular","good","match","n","n","458","1"
"v010003",2,"1998","大学",1613895783660,1,2,"test",3,10,"good","triangle","bad","mismatch","m","m","687.0000000001164","1"
"v010003",2,"1998","大学",1613895785650,1,2,"test",4,10,"good","square","ordinary","mismatch","m","m","628.9999999998836","1"
"v010003",2,"1998","大学",1613895787582,1,2,"test",5,10,"ordinary","circular","good","mismatch","m","m","824.9999999998836","1"
"v010003",2,"1998","大学",1613895789709,1,2,"test",6,10,"bad","circular","good","mismatch","m","n","718","0"
"v010003",2,"1998","大学",1613895791730,1,2,"test",7,10,"ordinary","square","ordinary","match","n","n","1147","1"
"v010003",2,"1998","大学",1613895794181,1,2,"test",8,10,"bad","triangle","bad","match","n","n","729","1"
"v010003",2,"1998","大学",1613895796213,1,2,"test",9,10,"bad","square","ordinary","mismatch","m","m","785","1"
"v010003",2,"1998","大学",1613895798302,1,2,"test",10,10,"ordinary","triangle","bad","mismatch","m","m","685","1"
"v010003",2,"1998","大学",1613895800291,1,2,"test",11,10,"bad","triangle","bad","match","n","m","758.0000000001164","0"
"v010003",2,"1998","大学",1613895802352,1,2,"test",12,10,"ordinary","square","ordinary","match","n","m","583","0"
"v010003",2,"1998","大学",1613895804239,1,2,"test",1,11,"bad","triangle","bad","match","n","n","650","1"
"v010003",2,"1998","大学",1613895806193,1,2,"test",2,11,"ordinary","triangle","bad","mismatch","m","m","661.9999999998836","1"
"v010003",2,"1998","大学",1613895808159,1,2,"test",3,11,"ordinary","circular","good","mismatch","m","n","756","0"
"v010003",2,"1998","大学",1613895810220,1,2,"test",4,11,"bad","triangle","bad","match","n","n","887.0000000001164","1"
"v010003",2,"1998","大学",1613895812410,1,2,"test",5,11,"good","circular","good","match","n","n","397","1"
"v010003",2,"1998","大学",1613895814110,1,2,"test",6,11,"bad","square","ordinary","mismatch","m","m","725","1"
"v010003",2,"1998","大学",1613895816138,1,2,"test",7,11,"ordinary","square","ordinary","match","n","n","860","1"
"v010003",2,"1998","大学",1613895818302,1,2,"test",8,11,"good","square","ordinary","mismatch","m","m","669","1"
"v010003",2,"1998","大学",1613895820274,1,2,"test",9,11,"ordinary","square","ordinary","match","n","m","1056","0"
"v010003",2,"1998","大学",1613895822635,1,2,"test",10,11,"good","circular","good","match","n","n","537","1"
"v010003",2,"1998","大学",1613895824475,1,2,"test",11,11,"bad","circular","good","mismatch","m","m","641.0000000001164","1"
"v010003",2,"1998","大学",1613895826420,1,2,"test",12,11,"good","triangle","bad","mismatch","m","m","827.9999999998836","1"
"v010003",2,"1998","大学",1613895828552,1,2,"test",1,12,"ordinary","circular","good","mismatch","m","m","654","1"
"v010003",2,"1998","大学",1613895830510,1,2,"test",2,12,"ordinary","square","ordinary","match","n","n","656.9999999998836","1"
"v010003",2,"1998","大学",1613895832472,1,2,"test",3,12,"bad","triangle","bad","match","n","n","897.9999999998836","1"
"v010003",2,"1998","大学",1613895834675,1,2,"test",4,12,"bad","square","ordinary","mismatch","m","m","656.9999999998836","1"
"v010003",2,"1998","大学",1613895836635,1,2,"test",5,12,"ordinary","square","ordinary","match","n","n","978.9999999997672","1"
"v010003",2,"1998","大学",1613895838918,1,2,"test",6,12,"good","square","ordinary","mismatch","m","m","636","1"
"v010003",2,"1998","大学",1613895840859,1,2,"test",7,12,"ordinary","triangle","bad","mismatch","m","n","942","0"
"v010003",2,"1998","大学",1613895843105,1,2,"test",8,12,"bad","triangle","bad","match","n","m","712","0"
"v010003",2,"1998","大学",1613895845122,1,2,"test",9,12,"bad","circular","good","mismatch","m","n","800.0000000002328","0"
"v010003",2,"1998","大学",1613895847226,1,2,"test",10,12,"good","circular","good","match","n","n","563","1"
"v010003",2,"1998","大学",1613895849092,1,2,"test",11,12,"good","triangle","bad","mismatch","m","m","665","1"
"v010003",2,"1998","大学",1613895851060,1,2,"test",12,12,"good","circular","good","match","n","n","658","1"
"v010003",2,"1998","大学",1613895889048,1,3,"test",1,13,"bad","square","ordinary","mismatch","m","m","898.9999999997672","1"
"v010003",2,"1998","大学",1613895891251,1,3,"test",2,13,"bad","triangle","bad","match","n","n","639","1"
"v010003",2,"1998","大学",1613895893195,1,3,"test",3,13,"bad","circular","good","mismatch","m","m","723","1"
"v010003",2,"1998","大学",1613895895221,1,3,"test",4,13,"good","circular","good","match","n","n","536","1"
"v010003",2,"1998","大学",1613895897061,1,3,"test",5,13,"ordinary","square","ordinary","match","n","n","843.0000000002328","1"
"v010003",2,"1998","大学",1613895899207,1,3,"test",6,13,"ordinary","triangle","bad","mismatch","m","m","695","1"
"v010003",2,"1998","大学",1613895901206,1,3,"test",7,13,"ordinary","circular","good","mismatch","m","m","886","1"
"v010003",2,"1998","大学",1613895903397,1,3,"test",8,13,"good","circular","good","match","n","n","417","1"
"v010003",2,"1998","大学",1613895905118,1,3,"test",9,13,"good","square","ordinary","mismatch","m","m","500","1"
"v010003",2,"1998","大学",1613895906923,1,3,"test",10,13,"good","triangle","bad","mismatch","m","m","678.9999999997672","1"
"v010003",2,"1998","大学",1613895908905,1,3,"test",11,13,"ordinary","square","ordinary","match","n","m","635","0"
"v010003",2,"1998","大学",1613895910844,1,3,"test",12,13,"bad","triangle","bad","match","n","m","608.0000000002328","0"
"v010003",2,"1998","大学",1613895912754,1,3,"test",1,14,"bad","triangle","bad","match","n","n","766","1"
"v010003",2,"1998","大学",1613895914824,1,3,"test",2,14,"good","triangle","bad","mismatch","m","n","447","0"
"v010003",2,"1998","大学",1613895916575,1,3,"test",3,14,"ordinary","square","ordinary","match","n","n","878","1"
"v010003",2,"1998","大学",1613895918756,1,3,"test",4,14,"bad","circular","good","mismatch","m","m","770","1"
"v010003",2,"1998","大学",1613895920830,1,3,"test",5,14,"ordinary","triangle","bad","mismatch","m","NA","null","0"
"v010003",2,"1998","大学",1613895923334,1,3,"test",6,14,"ordinary","circular","good","mismatch","m","n","911","0"
"v010003",2,"1998","大学",1613895925549,1,3,"test",7,14,"bad","square","ordinary","mismatch","m","NA","null","0"
"v010003",2,"1998","大学",1613895928054,1,3,"test",8,14,"bad","triangle","bad","match","n","n","729","1"
"v010003",2,"1998","大学",1613895930085,1,3,"test",9,14,"good","square","ordinary","mismatch","m","m","494","1"
"v010003",2,"1998","大学",1613895931883,1,3,"test",10,14,"good","circular","good","match","n","n","515","1"
"v010003",2,"1998","大学",1613895933701,1,3,"test",11,14,"ordinary","square","ordinary","match","n","m","532.9999999997672","0"
"v010003",2,"1998","大学",1613895935538,1,3,"test",12,14,"good","circular","good","match","n","n","542","1"
"v010003",2,"1998","大学",1613895937382,1,3,"test",1,15,"good","circular","good","match","n","n","456","1"
"v010003",2,"1998","大学",1613895939143,1,3,"test",2,15,"good","square","ordinary","mismatch","m","m","593.9999999997672","1"
"v010003",2,"1998","大学",1613895941040,1,3,"test",3,15,"good","triangle","bad","mismatch","m","m","526.0000000002328","1"
"v010003",2,"1998","大学",1613895942870,1,3,"test",4,15,"ordinary","triangle","bad","mismatch","m","m","1121","1"
"v010003",2,"1998","大学",1613895945294,1,3,"test",5,15,"good","circular","good","match","n","n","515","1"
"v010003",2,"1998","大学",1613895947114,1,3,"test",6,15,"ordinary","square","ordinary","match","n","m","916","0"
"v010003",2,"1998","大学",1613895949334,1,3,"test",7,15,"bad","square","ordinary","mismatch","m","n","868","0"
"v010003",2,"1998","大学",1613895951506,1,3,"test",8,15,"bad","circular","good","mismatch","m","m","687","1"
"v010003",2,"1998","大学",1613895953497,1,3,"test",9,15,"bad","triangle","bad","match","n","n","744","1"
"v010003",2,"1998","大学",1613895955545,1,3,"test",10,15,"bad","triangle","bad","match","n","n","840.0000000002328","1"
"v010003",2,"1998","大学",1613895957689,1,3,"test",11,15,"ordinary","square","ordinary","match","n","n","788","1"
"v010003",2,"1998","大学",1613895959780,1,3,"test",12,15,"ordinary","circular","good","mismatch","m","m","608","1"
"v010003",2,"1998","大学",1613895961692,1,3,"test",1,16,"bad","circular","good","mismatch","m","n","1011.9999999997672","0"
"v010003",2,"1998","大学",1613895964007,1,3,"test",2,16,"ordinary","circular","good","mismatch","m","m","701","1"
"v010003",2,"1998","大学",1613895966011,1,3,"test",3,16,"ordinary","triangle","bad","mismatch","m","n","1026","0"
"v010003",2,"1998","大学",1613895968341,1,3,"test",4,16,"good","square","ordinary","mismatch","m","m","603","1"
"v010003",2,"1998","大学",1613895970247,1,3,"test",5,16,"good","triangle","bad","mismatch","m","n","683","0"
"v010003",2,"1998","大学",1613895972234,1,3,"test",6,16,"good","circular","good","match","n","n","419","1"
"v010003",2,"1998","大学",1613895973957,1,3,"test",7,16,"good","circular","good","match","n","n","632","1"
"v010003",2,"1998","大学",1613895975893,1,3,"test",8,16,"bad","square","ordinary","mismatch","m","m","535.9999999997672","1"
"v010003",2,"1998","大学",1613895977732,1,3,"test",9,16,"ordinary","square","ordinary","match","n","n","753","1"
"v010003",2,"1998","大学",1613895979788,1,3,"test",10,16,"bad","triangle","bad","match","n","n","593","1"
"v010003",2,"1998","大学",1613895981684,1,3,"test",11,16,"bad","triangle","bad","match","n","m","623","0"
"v010003",2,"1998","大学",1613895983616,1,3,"test",12,16,"ordinary","square","ordinary","match","n","n","457","1"
"v010003",2,"1998","大学",1613895985376,1,3,"test",1,17,"ordinary","square","ordinary","match","n","n","470","1"
"v010003",2,"1998","大学",1613895987150,1,3,"test",2,17,"bad","square","ordinary","mismatch","m","m","663","1"
"v010003",2,"1998","大学",1613895989115,1,3,"test",3,17,"bad","triangle","bad","match","n","n","676","1"
"v010003",2,"1998","大学",1613895991095,1,3,"test",4,17,"good","triangle","bad","mismatch","m","n","444.99999999976717","0"
"v010003",2,"1998","大学",1613895992844,1,3,"test",5,17,"good","circular","good","match","n","n","484","1"
"v010003",2,"1998","大学",1613895994631,1,3,"test",6,17,"ordinary","square","ordinary","match","n","n","755","1"
"v010003",2,"1998","大学",1613895996689,1,3,"test",7,17,"good","circular","good","match","n","m","707","0"
"v010003",2,"1998","大学",1613895998699,1,3,"test",8,17,"ordinary","circular","good","mismatch","m","m","674","1"
"v010003",2,"1998","大学",1613896000676,1,3,"test",9,17,"ordinary","triangle","bad","mismatch","m","n","399","0"
"v010003",2,"1998","大学",1613896002378,1,3,"test",10,17,"good","square","ordinary","mismatch","m","n","463","0"
"v010003",2,"1998","大学",1613896004145,1,3,"test",11,17,"bad","circular","good","mismatch","m","m","617","1"
"v010003",2,"1998","大学",1613896006064,1,3,"test",12,17,"bad","triangle","bad","match","n","n","508","1"
"v010003",2,"1998","大学",1613896007876,1,3,"test",1,18,"good","triangle","bad","mismatch","m","n","627","0"
"v010003",2,"1998","大学",1613896009806,1,3,"test",2,18,"bad","triangle","bad","match","n","n","389","1"
"v010003",2,"1998","大学",1613896011498,1,3,"test",3,18,"bad","square","ordinary","mismatch","m","m","613","1"
"v010003",2,"1998","大学",1613896013414,1,3,"test",4,18,"good","circular","good","match","n","n","404","1"
"v010003",2,"1998","大学",1613896015122,1,3,"test",5,18,"bad","triangle","bad","match","n","n","664","1"
"v010003",2,"1998","大学",1613896017090,1,3,"test",6,18,"ordinary","square","ordinary","match","n","n","668","1"
"v010003",2,"1998","大学",1613896019061,1,3,"test",7,18,"ordinary","triangle","bad","mismatch","m","m","965","1"
"v010003",2,"1998","大学",1613896021329,1,3,"test",8,18,"bad","circular","good","mismatch","m","n","726","0"
"v010003",2,"1998","大学",1613896023359,1,3,"test",9,18,"good","square","ordinary","mismatch","m","m","681","1"
"v010003",2,"1998","大学",1613896025344,1,3,"test",10,18,"good","circular","good","match","n","n","581","1"
"v010003",2,"1998","大学",1613896027229,1,3,"test",11,18,"ordinary","square","ordinary","match","n","n","800","1"
"v010003",2,"1998","大学",1613896029332,1,3,"test",12,18,"ordinary","circular","good","mismatch","m","m","724","1"
"v010003",2,"1998","大学",1613896073374,1,4,"test",1,19,"bad","circular","good","mismatch","m","n","907.9999999997672","0"
"v010003",2,"1998","大学",1613896075587,1,4,"test",2,19,"good","circular","good","match","n","n","489.00000000023283","1"
"v010003",2,"1998","大学",1613896077379,1,4,"test",3,19,"good","circular","good","match","n","n","486","1"
"v010003",2,"1998","大学",1613896079168,1,4,"test",4,19,"good","square","ordinary","mismatch","m","m","465","1"
"v010003",2,"1998","大学",1613896080937,1,4,"test",5,19,"bad","square","ordinary","mismatch","m","n","718","0"
"v010003",2,"1998","大学",1613896082958,1,4,"test",6,19,"ordinary","triangle","bad","mismatch","m","n","789","0"
"v010003",2,"1998","大学",1613896085050,1,4,"test",7,19,"bad","triangle","bad","match","n","n","724","1"
"v010003",2,"1998","大学",1613896087079,1,4,"test",8,19,"good","triangle","bad","mismatch","m","m","655","1"
"v010003",2,"1998","大学",1613896089037,1,4,"test",9,19,"ordinary","square","ordinary","match","n","n","706","1"
"v010003",2,"1998","大学",1613896091047,1,4,"test",10,19,"bad","triangle","bad","match","n","n","664","1"
"v010003",2,"1998","大学",1613896093014,1,4,"test",11,19,"ordinary","circular","good","mismatch","m","n","750","0"
"v010003",2,"1998","大学",1613896095071,1,4,"test",12,19,"ordinary","square","ordinary","match","n","n","789","1"
"v010003",2,"1998","大学",1613896097164,1,4,"test",1,20,"ordinary","square","ordinary","match","n","n","653","1"
"v010003",2,"1998","大学",1613896099120,1,4,"test",2,20,"good","square","ordinary","mismatch","m","m","791","1"
"v010003",2,"1998","大学",1613896101213,1,4,"test",3,20,"ordinary","circular","good","mismatch","m","n","863","0"
"v010003",2,"1998","大学",1613896103380,1,4,"test",4,20,"good","triangle","bad","mismatch","m","n","539","0"
"v010003",2,"1998","大学",1613896105222,1,4,"test",5,20,"ordinary","triangle","bad","mismatch","m","m","920","1"
"v010003",2,"1998","大学",1613896107446,1,4,"test",6,20,"bad","triangle","bad","match","n","m","794","0"
"v010003",2,"1998","大学",1613896109545,1,4,"test",7,20,"good","circular","good","match","n","n","548","1"
"v010003",2,"1998","大学",1613896111397,1,4,"test",8,20,"ordinary","square","ordinary","match","n","m","696","0"
"v010003",2,"1998","大学",1613896113399,1,4,"test",9,20,"good","circular","good","match","n","n","529","1"
"v010003",2,"1998","大学",1613896115232,1,4,"test",10,20,"bad","triangle","bad","match","n","n","749","1"
"v010003",2,"1998","大学",1613896117285,1,4,"test",11,20,"bad","square","ordinary","mismatch","m","m","920","1"
"v010003",2,"1998","大学",1613896119510,1,4,"test",12,20,"bad","circular","good","mismatch","m","n","910","0"
"v010003",2,"1998","大学",1613896121723,1,4,"test",1,21,"bad","circular","good","mismatch","m","NA","null","0"
"v010003",2,"1998","大学",1613896124228,1,4,"test",2,21,"good","square","ordinary","mismatch","m","m","714","1"
"v010003",2,"1998","大学",1613896126246,1,4,"test",3,21,"ordinary","triangle","bad","mismatch","m","m","983","1"
"v010003",2,"1998","大学",1613896128534,1,4,"test",4,21,"bad","square","ordinary","mismatch","m","m","607","1"
"v010003",2,"1998","大学",1613896130444,1,4,"test",5,21,"good","circular","good","match","n","n","461","1"
"v010003",2,"1998","大学",1613896132209,1,4,"test",6,21,"good","circular","good","match","n","m","600","0"
"v010003",2,"1998","大学",1613896134115,1,4,"test",7,21,"ordinary","square","ordinary","match","n","m","741","0"
"v010003",2,"1998","大学",1613896136159,1,4,"test",8,21,"bad","triangle","bad","match","n","n","588","1"
"v010003",2,"1998","大学",1613896138052,1,4,"test",9,21,"ordinary","circular","good","mismatch","m","m","700","1"
"v010003",2,"1998","大学",1613896140056,1,4,"test",10,21,"ordinary","square","ordinary","match","n","m","685","0"
"v010003",2,"1998","大学",1613896142044,1,4,"test",11,21,"good","triangle","bad","mismatch","m","n","534","0"
"v010003",2,"1998","大学",1613896143884,1,4,"test",12,21,"bad","triangle","bad","match","n","m","649.9999999997672","0"
"v010003",2,"1998","大学",1613896145837,1,4,"test",1,22,"ordinary","square","ordinary","match","n","m","920","0"
"v010003",2,"1998","大学",1613896148062,1,4,"test",2,22,"bad","triangle","bad","match","n","n","711","1"
"v010003",2,"1998","大学",1613896150078,1,4,"test",3,22,"good","square","ordinary","mismatch","m","m","682","1"
"v010003",2,"1998","大学",1613896152063,1,4,"test",4,22,"good","circular","good","match","n","n","509","1"
"v010003",2,"1998","大学",1613896153876,1,4,"test",5,22,"ordinary","circular","good","mismatch","m","m","638","1"
"v010003",2,"1998","大学",1613896155820,1,4,"test",6,22,"good","circular","good","match","n","n","484","1"
"v010003",2,"1998","大学",1613896157607,1,4,"test",7,22,"bad","triangle","bad","match","n","n","785.0000000002328","1"
"v010003",2,"1998","大学",1613896159696,1,4,"test",8,22,"bad","circular","good","mismatch","m","m","644","1"
"v010003",2,"1998","大学",1613896161645,1,4,"test",9,22,"bad","square","ordinary","mismatch","m","m","1045.0000000002328","1"
"v010003",2,"1998","大学",1613896163995,1,4,"test",10,22,"good","triangle","bad","mismatch","m","n","694","0"
"v010003",2,"1998","大学",1613896165991,1,4,"test",11,22,"ordinary","square","ordinary","match","n","n","799","1"
"v010003",2,"1998","大学",1613896168093,1,4,"test",12,22,"ordinary","triangle","bad","mismatch","m","m","695","1"
"v010003",2,"1998","大学",1613896170091,1,4,"test",1,23,"ordinary","circular","good","mismatch","m","n","644","0"
"v010003",2,"1998","大学",1613896172039,1,4,"test",2,23,"good","triangle","bad","mismatch","m","n","442","0"
"v010003",2,"1998","大学",1613896173784,1,4,"test",3,23,"ordinary","square","ordinary","match","n","m","998","0"
"v010003",2,"1998","大学",1613896176086,1,4,"test",4,23,"bad","triangle","bad","match","n","n","731.9999999997672","1"
"v010003",2,"1998","大学",1613896178122,1,4,"test",5,23,"good","square","ordinary","mismatch","m","m","608.0000000002328","1"
"v010003",2,"1998","大学",1613896180032,1,4,"test",6,23,"good","circular","good","match","n","n","579","1"
"v010003",2,"1998","大学",1613896181915,1,4,"test",7,23,"good","circular","good","match","n","n","682","1"
"v010003",2,"1998","大学",1613896183900,1,4,"test",8,23,"ordinary","square","ordinary","match","n","n","973.0000000002328","1"
"v010003",2,"1998","大学",1613896186179,1,4,"test",9,23,"bad","circular","good","mismatch","m","n","754","0"
"v010003",2,"1998","大学",1613896188238,1,4,"test",10,23,"ordinary","triangle","bad","mismatch","m","NA","null","0"
"v010003",2,"1998","大学",1613896190743,1,4,"test",11,23,"bad","square","ordinary","mismatch","m","m","583.0000000002328","1"
"v010003",2,"1998","大学",1613896192630,1,4,"test",12,23,"bad","triangle","bad","match","n","n","1000","1"
"v010003",2,"1998","大学",1613896194934,1,4,"test",1,24,"good","square","ordinary","mismatch","m","m","634","1"
"v010003",2,"1998","大学",1613896196873,1,4,"test",2,24,"ordinary","circular","good","mismatch","m","n","977","0"
"v010003",2,"1998","大学",1613896199153,1,4,"test",3,24,"ordinary","square","ordinary","match","n","m","629.9999999997672","0"
"v010003",2,"1998","大学",1613896201085,1,4,"test",4,24,"bad","square","ordinary","mismatch","m","m","731.9999999997672","1"
"v010003",2,"1998","大学",1613896203120,1,4,"test",5,24,"good","triangle","bad","mismatch","m","NA","null","0"
"v010003",2,"1998","大学",1613896205625,1,4,"test",6,24,"ordinary","square","ordinary","match","n","m","703","0"
"v010003",2,"1998","大学",1613896207631,1,4,"test",7,24,"ordinary","triangle","bad","mismatch","m","m","1100","1"
"v010003",2,"1998","大学",1613896210035,1,4,"test",8,24,"good","circular","good","match","n","n","556","1"
"v010003",2,"1998","大学",1613896211894,1,4,"test",9,24,"bad","triangle","bad","match","n","n","985","1"
"v010003",2,"1998","大学",1613896214182,1,4,"test",10,24,"bad","triangle","bad","match","n","n","590.9999999997672","1"
"v010003",2,"1998","大学",1613896216077,1,4,"test",11,24,"bad","circular","good","mismatch","m","m","535","1"
"v010003",2,"1998","大学",1613896217915,1,4,"test",12,24,"good","circular","good","match","n","n","576","1"
"v010003",2,"1998","大学",1613896241776,1,5,"test",1,25,"bad","triangle","bad","match","n","n","870.9999999997672","1"
"v010003",2,"1998","大学",1613896243955,1,5,"test",2,25,"good","circular","good","match","n","n","591.0000000002328","1"
"v010003",2,"1998","大学",1613896245851,1,5,"test",3,25,"good","triangle","bad","mismatch","m","m","823","1"
"v010003",2,"1998","大学",1613896247978,1,5,"test",4,25,"good","circular","good","match","n","n","808.0000000002328","1"
"v010003",2,"1998","大学",1613896250089,1,5,"test",5,25,"bad","square","ordinary","mismatch","m","m","570","1"
"v010003",2,"1998","大学",1613896251963,1,5,"test",6,25,"bad","triangle","bad","match","n","n","718","1"
"v010003",2,"1998","大学",1613896253986,1,5,"test",7,25,"ordinary","square","ordinary","match","n","m","599.0000000002328","0"
"v010003",2,"1998","大学",1613896255888,1,5,"test",8,25,"ordinary","square","ordinary","match","n","n","645","1"
"v010003",2,"1998","大学",1613896257837,1,5,"test",9,25,"ordinary","triangle","bad","mismatch","m","m","612","1"
"v010003",2,"1998","大学",1613896259751,1,5,"test",10,25,"good","square","ordinary","mismatch","m","m","856","1"
"v010003",2,"1998","大学",1613896261913,1,5,"test",11,25,"ordinary","circular","good","mismatch","m","m","603","1"
"v010003",2,"1998","大学",1613896263819,1,5,"test",12,25,"bad","circular","good","mismatch","m","n","390.00000000023283","0"
"v010003",2,"1998","大学",1613896265514,1,5,"test",1,26,"bad","triangle","bad","match","n","n","656","1"
"v010003",2,"1998","大学",1613896267473,1,5,"test",2,26,"bad","triangle","bad","match","n","n","757.0000000002328","1"
"v010003",2,"1998","大学",1613896269535,1,5,"test",3,26,"good","circular","good","match","n","n","795.9999999997672","1"
"v010003",2,"1998","大学",1613896271636,1,5,"test",4,26,"good","square","ordinary","mismatch","m","m","733","1"
"v010003",2,"1998","大学",1613896273672,1,5,"test",5,26,"bad","square","ordinary","mismatch","m","m","1095.0000000002328","1"
"v010003",2,"1998","大学",1613896276071,1,5,"test",6,26,"good","circular","good","match","n","n","565","1"
"v010003",2,"1998","大学",1613896277940,1,5,"test",7,26,"ordinary","triangle","bad","mismatch","m","n","819.9999999997672","0"
"v010003",2,"1998","大学",1613896280065,1,5,"test",8,26,"good","triangle","bad","mismatch","m","m","779","1"
"v010003",2,"1998","大学",1613896282148,1,5,"test",9,26,"ordinary","square","ordinary","match","n","n","692","1"
"v010003",2,"1998","大学",1613896284143,1,5,"test",10,26,"ordinary","circular","good","mismatch","m","m","792.9999999997672","1"
"v010003",2,"1998","大学",1613896286239,1,5,"test",11,26,"bad","circular","good","mismatch","m","m","916","1"
"v010003",2,"1998","大学",1613896288459,1,5,"test",12,26,"ordinary","square","ordinary","match","n","n","869.9999999997672","1"
"v010003",2,"1998","大学",1613896290633,1,5,"test",1,27,"bad","square","ordinary","mismatch","m","NA","null","0"
"v010003",2,"1998","大学",1613896293137,1,5,"test",2,27,"bad","circular","good","mismatch","m","m","830","1"
"v010003",2,"1998","大学",1613896295271,1,5,"test",3,27,"ordinary","square","ordinary","match","n","m","625","0"
"v010003",2,"1998","大学",1613896297201,1,5,"test",4,27,"bad","triangle","bad","match","n","n","665","1"
"v010003",2,"1998","大学",1613896299170,1,5,"test",5,27,"good","circular","good","match","n","n","531.0000000002328","1"
"v010003",2,"1998","大学",1613896301003,1,5,"test",6,27,"ordinary","circular","good","mismatch","m","m","987","1"
"v010003",2,"1998","大学",1613896303295,1,5,"test",7,27,"bad","triangle","bad","match","n","n","893","1"
"v010003",2,"1998","大学",1613896305494,1,5,"test",8,27,"good","circular","good","match","n","n","526","1"
"v010003",2,"1998","大学",1613896307326,1,5,"test",9,27,"good","triangle","bad","mismatch","m","n","406","0"
"v010003",2,"1998","大学",1613896309036,1,5,"test",10,27,"ordinary","square","ordinary","match","n","NA","null","0"
"v010003",2,"1998","大学",1613896311540,1,5,"test",11,27,"ordinary","triangle","bad","mismatch","m","n","647","0"
"v010003",2,"1998","大学",1613896313492,1,5,"test",12,27,"good","square","ordinary","mismatch","m","m","747","1"
"v010003",2,"1998","大学",1613896315544,1,5,"test",1,28,"bad","circular","good","mismatch","m","m","643","1"
"v010003",2,"1998","大学",1613896317491,1,5,"test",2,28,"good","triangle","bad","mismatch","m","m","844.0000000002328","1"
"v010003",2,"1998","大学",1613896319641,1,5,"test",3,28,"bad","square","ordinary","mismatch","m","m","733","1"
"v010003",2,"1998","大学",1613896321677,1,5,"test",4,28,"good","circular","good","match","n","n","514.0000000002328","1"
"v010003",2,"1998","大学",1613896323497,1,5,"test",5,28,"ordinary","square","ordinary","match","n","n","527","1"
"v010003",2,"1998","大学",1613896325328,1,5,"test",6,28,"ordinary","triangle","bad","mismatch","m","m","610","1"
"v010003",2,"1998","大学",1613896327240,1,5,"test",7,28,"bad","triangle","bad","match","n","m","583","0"
"v010003",2,"1998","大学",1613896329128,1,5,"test",8,28,"ordinary","square","ordinary","match","n","n","1130.0000000002328","1"
"v010003",2,"1998","大学",1613896331562,1,5,"test",9,28,"bad","triangle","bad","match","n","n","767","1"
"v010003",2,"1998","大学",1613896333632,1,5,"test",10,28,"good","square","ordinary","mismatch","m","m","770","1"
"v010003",2,"1998","大学",1613896335706,1,5,"test",11,28,"good","circular","good","match","n","n","486","1"
"v010003",2,"1998","大学",1613896337497,1,5,"test",12,28,"ordinary","circular","good","mismatch","m","m","742.0000000002328","1"
"v010003",2,"1998","大学",1613896339541,1,5,"test",1,29,"bad","triangle","bad","match","n","n","833","1"
"v010003",2,"1998","大学",1613896341678,1,5,"test",2,29,"good","circular","good","match","n","n","675","1"
"v010003",2,"1998","大学",1613896343656,1,5,"test",3,29,"good","triangle","bad","mismatch","m","m","743","1"
"v010003",2,"1998","大学",1613896345704,1,5,"test",4,29,"ordinary","square","ordinary","match","n","n","780","1"
"v010003",2,"1998","大学",1613896347788,1,5,"test",5,29,"good","circular","good","match","n","n","597","1"
"v010003",2,"1998","大学",1613896349688,1,5,"test",6,29,"bad","triangle","bad","match","n","n","669","1"
"v010003",2,"1998","大学",1613896351660,1,5,"test",7,29,"good","square","ordinary","mismatch","m","m","678.9999999997672","1"
"v010003",2,"1998","大学",1613896353644,1,5,"test",8,29,"ordinary","circular","good","mismatch","m","n","575","0"
"v010003",2,"1998","大学",1613896355523,1,5,"test",9,29,"ordinary","triangle","bad","mismatch","m","m","618","1"
"v010003",2,"1998","大学",1613896357444,1,5,"test",10,29,"bad","square","ordinary","mismatch","m","m","843.0000000002328","1"
"v010003",2,"1998","大学",1613896359591,1,5,"test",11,29,"ordinary","square","ordinary","match","n","n","758","1"
"v010003",2,"1998","大学",1613896361653,1,5,"test",12,29,"bad","circular","good","mismatch","m","m","753","1"
"v010003",2,"1998","大学",1613896363710,1,5,"test",1,30,"good","square","ordinary","mismatch","m","n","395.99999999976717","0"
"v010003",2,"1998","大学",1613896365410,1,5,"test",2,30,"good","triangle","bad","mismatch","m","m","691","1"
"v010003",2,"1998","大学",1613896367405,1,5,"test",3,30,"ordinary","circular","good","mismatch","m","m","1020","1"
"v010003",2,"1998","大学",1613896369729,1,5,"test",4,30,"bad","square","ordinary","mismatch","m","m","673","1"
"v010003",2,"1998","大学",1613896371705,1,5,"test",5,30,"ordinary","square","ordinary","match","n","m","577","0"
